size,direction,distance,trials.thisRepN,trials.thisTrialN,trials.thisN,trials.thisIndex,mouse_target.x,mouse_target.y,mouse_target.leftButton,mouse_target.midButton,mouse_target.rightButton,mouse_target.time,mouse_target.clicked_name,session,participant,date,expName,frameRate,
100,30,500,0,0,0,84,0.17375,0.10666666666666667,1,0,0,1.1968780000461265,target,001,part1,2018_Dec_24_1908,fitts,60.0361177378626,
300,60,400,0,1,1,74,-0.14875,-0.05333333333333334,1,0,0,0.964716799906455,target,001,part1,2018_Dec_24_1908,fitts,60.0361177378626,
200,45,100,0,2,2,9,-0.27375,0.4911111111111111,1,0,0,0.9983824999071658,target,001,part1,2018_Dec_24_1908,fitts,60.0361177378626,
400,15,200,0,3,3,23,-0.1825,0.52,1,0,0,0.598511700052768,target,001,part1,2018_Dec_24_1908,fitts,60.0361177378626,
300,30,400,0,4,4,66,0.08125,0.18444444444444444,1,0,0,1.164087500073947,target,001,part1,2018_Dec_24_1908,fitts,60.0361177378626,
300,30,300,0,5,5,46,-0.0275,0.31333333333333335,1,0,0,0.5986863999860361,target,001,part1,2018_Dec_24_1908,fitts,60.0361177378626,
400,45,200,0,6,6,31,-0.14125,0.38222222222222224,1,0,0,0.5488939000060782,target,001,part1,2018_Dec_24_1908,fitts,60.0361177378626,
100,30,100,0,7,7,4,-0.2525,0.5488888888888889,1,0,0,0.9811233999207616,target,001,part1,2018_Dec_24_1908,fitts,60.0361177378626,
400,15,400,0,8,8,63,0.0875,0.45555555555555555,1,0,0,1.1317564999917522,target,001,part1,2018_Dec_24_1908,fitts,60.0361177378626,
300,15,300,0,9,9,42,-0.01,0.44,1,0,0,0.6326132999965921,target,001,part1,2018_Dec_24_1908,fitts,60.0361177378626,
300,45,200,0,10,10,30,-0.18,0.39555555555555555,1,0,0,0.7481876000529155,target,001,part1,2018_Dec_24_1908,fitts,60.0361177378626,
400,60,100,0,11,11,15,-0.31,0.5444444444444444,1,0,0,0.5486530000343919,target,001,part1,2018_Dec_24_1908,fitts,60.0361177378626,
300,60,500,0,12,12,94,-0.04,-0.2577777777777778,1,0,0,0.7481667000101879,target,001,part1,2018_Dec_24_1908,fitts,60.0361177378626,
200,15,400,0,13,13,61,0.1075,0.4311111111111111,1,0,0,0.9144216999411583,target,001,part1,2018_Dec_24_1908,fitts,60.0361177378626,
300,75,300,0,14,14,58,-0.28,0.044444444444444446,1,0,0,0.9148525000782683,target,001,part1,2018_Dec_24_1908,fitts,60.0361177378626,
200,30,500,0,15,15,85,0.17375,0.09333333333333334,1,0,0,0.8480684999376535,target,001,part1,2018_Dec_24_1908,fitts,60.0361177378626,
200,75,200,0,16,16,37,-0.285,0.2222222222222222,1,0,0,1.113900399999693,target,001,part1,2018_Dec_24_1908,fitts,60.0361177378626,
200,75,500,0,17,17,97,-0.22625,-0.4177777777777778,1,0,0,1.064450600068085,target,001,part1,2018_Dec_24_1908,fitts,60.0361177378626,
400,30,500,0,18,18,87,0.12625,0.12666666666666668,1,0,0,0.748432399937883,target,001,part1,2018_Dec_24_1908,fitts,60.0361177378626,
400,30,400,0,19,19,67,0.02875,0.2288888888888889,1,0,0,0.682060599909164,target,001,part1,2018_Dec_24_1908,fitts,60.0361177378626,
300,15,400,0,20,20,62,0.07625,0.44666666666666666,1,0,0,0.76446139998734,target,001,part1,2018_Dec_24_1908,fitts,60.0361177378626,
400,75,300,0,21,21,59,-0.26125,0.057777777777777775,1,0,0,0.7314175999490544,target,001,part1,2018_Dec_24_1908,fitts,60.0361177378626,
300,15,100,0,22,22,2,-0.3075,0.6266666666666667,1,0,0,1.2980780999641865,target,001,part1,2018_Dec_24_1908,fitts,60.0361177378626,
400,30,100,0,23,23,7,-0.25625,0.5533333333333333,1,0,0,0.4487877000356093,target,001,part1,2018_Dec_24_1908,fitts,60.0361177378626,
100,15,100,0,24,24,0,-0.24875,0.5955555555555555,1,0,0,0.5819116999628022,target,001,part1,2018_Dec_24_1908,fitts,60.0361177378626,
200,30,400,0,25,25,65,0.085,0.19333333333333333,1,0,0,0.9807692999020219,target,001,part1,2018_Dec_24_1908,fitts,60.0361177378626,
100,60,300,0,26,26,52,-0.2025,0.11333333333333333,1,0,0,1.1149465000489727,target,001,part1,2018_Dec_24_1908,fitts,60.0361177378626,
300,75,500,0,27,27,98,-0.2225,-0.3888888888888889,1,0,0,0.8814698000205681,target,001,part1,2018_Dec_24_1908,fitts,60.0361177378626,
300,60,200,0,28,28,34,-0.23125,0.32,1,0,0,0.648462799959816,target,001,part1,2018_Dec_24_1908,fitts,60.0361177378626,
300,15,200,0,29,29,22,-0.08875,0.5355555555555556,1,0,0,0.8318783000577241,target,001,part1,2018_Dec_24_1908,fitts,60.0361177378626,
200,60,200,0,30,30,33,-0.23875,0.28888888888888886,1,0,0,0.9813068999210373,target,001,part1,2018_Dec_24_1908,fitts,60.0361177378626,
300,75,400,0,31,31,78,-0.2625,-0.1688888888888889,1,0,0,0.7485316999955103,target,001,part1,2018_Dec_24_1908,fitts,60.0361177378626,
100,45,100,0,32,32,8,-0.2775,0.5,1,0,0,1.181110000004992,target,001,part1,2018_Dec_24_1908,fitts,60.0361177378626,
400,15,500,0,33,33,83,0.17375,0.42444444444444446,1,0,0,1.0640395999653265,target,001,part1,2018_Dec_24_1908,fitts,60.0361177378626,
400,45,100,0,34,34,11,-0.24125,0.49777777777777776,1,0,0,0.48196000000461936,target,001,part1,2018_Dec_24_1908,fitts,60.0361177378626,
200,60,100,0,35,35,13,-0.28875,0.5066666666666667,1,0,0,0.5983604999491945,target,001,part1,2018_Dec_24_1908,fitts,60.0361177378626,
100,30,300,0,36,36,44,-0.07,0.36,1,0,0,0.9813684000400826,target,001,part1,2018_Dec_24_1908,fitts,60.0361177378626,
100,60,400,0,37,37,72,-0.12125,-0.08888888888888889,1,0,0,1.0481773000210524,target,001,part1,2018_Dec_24_1908,fitts,60.0361177378626,
100,60,100,0,38,38,12,-0.29875,0.48,1,0,0,0.8648510000202805,target,001,part1,2018_Dec_24_1908,fitts,60.0361177378626,
400,75,200,0,39,39,39,-0.31125,0.3422222222222222,1,0,0,0.548957800026983,target,001,part1,2018_Dec_24_1908,fitts,60.0361177378626,
400,75,500,0,40,40,99,-0.18375,-0.36,1,0,0,0.6486238000215963,target,001,part1,2018_Dec_24_1908,fitts,60.0361177378626,
100,60,200,0,41,41,32,-0.245,0.29333333333333333,1,0,0,0.6816177000291646,target,001,part1,2018_Dec_24_1908,fitts,60.0361177378626,
200,75,400,0,42,42,77,-0.27,-0.1688888888888889,1,0,0,0.9308354000095278,target,001,part1,2018_Dec_24_1908,fitts,60.0361177378626,
100,15,400,0,43,43,60,0.13625,0.4444444444444444,1,0,0,1.114116600016132,target,001,part1,2018_Dec_24_1908,fitts,60.0361177378626,
300,60,100,0,44,44,14,-0.28,0.48444444444444446,1,0,0,0.5650353999808431,target,001,part1,2018_Dec_24_1908,fitts,60.0361177378626,
400,15,300,0,45,45,43,-0.07,0.4666666666666667,1,0,0,0.5487456999253482,target,001,part1,2018_Dec_24_1908,fitts,60.0361177378626,
200,45,200,0,46,46,29,-0.18375,0.3422222222222222,1,0,0,0.9315884999232367,target,001,part1,2018_Dec_24_1908,fitts,60.0361177378626,
100,45,500,0,47,47,88,0.065,-0.11777777777777777,1,0,0,1.7303943999577314,target,001,part1,2018_Dec_24_1908,fitts,60.0361177378626,
300,15,500,0,48,48,82,0.225,0.4222222222222222,1,0,0,0.9984473999356851,target,001,part1,2018_Dec_24_1908,fitts,60.0361177378626,
400,30,200,0,49,49,27,-0.14375,0.45111111111111113,1,0,0,0.5317619000561535,target,001,part1,2018_Dec_24_1908,fitts,60.0361177378626,
400,75,400,0,50,50,79,-0.2275,-0.1511111111111111,1,0,0,0.6984422999667004,target,001,part1,2018_Dec_24_1908,fitts,60.0361177378626,
100,75,400,0,51,51,76,-0.23875,-0.19555555555555557,1,0,0,1.2477268000366166,target,001,part1,2018_Dec_24_1908,fitts,60.0361177378626,
200,30,200,0,52,52,25,-0.18,0.42,1,0,0,0.7150790999876335,target,001,part1,2018_Dec_24_1908,fitts,60.0361177378626,
400,60,200,0,53,53,35,-0.20625,0.3422222222222222,1,0,0,0.4988219999941066,target,001,part1,2018_Dec_24_1908,fitts,60.0361177378626,
100,75,200,0,54,54,36,-0.31625,0.24,1,0,0,0.8316946999402717,target,001,part1,2018_Dec_24_1908,fitts,60.0361177378626,
100,75,100,0,55,55,16,-0.34125,0.4666666666666667,1,0,0,0.8482867000857368,target,001,part1,2018_Dec_24_1908,fitts,60.0361177378626,
100,45,300,0,56,56,48,-0.11,0.18444444444444444,1,0,0,0.7161638999823481,target,001,part1,2018_Dec_24_1908,fitts,60.0361177378626,
100,30,200,0,57,57,24,-0.16125,0.43777777777777777,1,0,0,1.2814327999949455,target,001,part1,2018_Dec_24_1908,fitts,60.0361177378626,
300,30,100,0,58,58,6,-0.3,0.5311111111111111,1,0,0,0.5319029999664053,target,001,part1,2018_Dec_24_1908,fitts,60.0361177378626,
100,75,300,0,59,59,56,-0.27,0.05333333333333334,1,0,0,0.8646351000061259,target,001,part1,2018_Dec_24_1908,fitts,60.0361177378626,
100,45,200,0,60,60,28,-0.19375,0.35333333333333333,1,0,0,0.8985117999836802,target,001,part1,2018_Dec_24_1908,fitts,60.0361177378626,
200,30,300,0,61,61,45,-0.04875,0.32666666666666666,1,0,0,1.1310968999750912,target,001,part1,2018_Dec_24_1908,fitts,60.0361177378626,
400,30,300,0,62,62,47,-0.08,0.3,1,0,0,0.6152556000743061,target,001,part1,2018_Dec_24_1908,fitts,60.0361177378626,
200,60,300,0,63,63,53,-0.175,0.06666666666666667,1,0,0,0.8481395000126213,target,001,part1,2018_Dec_24_1908,fitts,60.0361177378626,
200,45,400,0,64,64,69,-0.00125,0.03333333333333333,1,0,0,0.6322161999996752,target,001,part1,2018_Dec_24_1908,fitts,60.0361177378626,
400,45,400,0,65,65,71,-0.02625,0.051111111111111114,1,0,0,0.616087400005199,target,001,part1,2018_Dec_24_1908,fitts,60.0361177378626,
300,60,300,0,66,66,54,-0.2225,0.12222222222222222,1,0,0,1.5306726999115199,target,001,part1,2018_Dec_24_1908,fitts,60.0361177378626,
200,75,300,0,67,67,57,-0.27,0.02,1,0,0,0.746480799978599,target,001,part1,2018_Dec_24_1908,fitts,60.0361177378626,
100,15,500,0,68,68,80,0.2475,0.37333333333333335,1,0,0,1.7129935999400914,target,001,part1,2018_Dec_24_1908,fitts,60.0361177378626,
200,60,500,0,69,69,93,-0.0575,-0.24888888888888888,1,0,0,0.8812840000027791,target,001,part1,2018_Dec_24_1908,fitts,60.0361177378626,
300,75,100,0,70,70,18,-0.3075,0.48444444444444446,1,0,0,0.5147298000520095,target,001,part1,2018_Dec_24_1908,fitts,60.0361177378626,
200,15,200,0,71,71,21,-0.09375,0.5555555555555556,1,0,0,1.1646804000483826,target,001,part1,2018_Dec_24_1908,fitts,60.0361177378626,
100,45,400,0,72,72,68,-0.0325,0.05333333333333334,1,0,0,0.8647830999689177,target,001,part1,2018_Dec_24_1908,fitts,60.0361177378626,
100,15,300,0,73,73,40,-0.00625,0.5044444444444445,1,0,0,0.9483895999146625,target,001,part1,2018_Dec_24_1908,fitts,60.0361177378626,
200,15,300,0,74,74,41,-0.00625,0.5044444444444445,1,0,0,0.6984741999767721,target,001,part1,2018_Dec_24_1908,fitts,60.0361177378626,
200,15,500,0,75,75,81,0.21875,0.37333333333333335,1,0,0,1.0811013000784442,target,001,part1,2018_Dec_24_1908,fitts,60.0361177378626,
200,75,100,0,76,76,17,-0.31125,0.46,1,0,0,0.5982732999837026,target,001,part1,2018_Dec_24_1908,fitts,60.0361177378626,
400,60,400,0,77,77,75,-0.155,-0.05333333333333334,1,0,0,0.6822888000169769,target,001,part1,2018_Dec_24_1908,fitts,60.0361177378626,
300,75,200,0,78,78,38,-0.28125,0.24222222222222223,1,0,0,0.6148151999805123,target,001,part1,2018_Dec_24_1908,fitts,60.0361177378626,
200,30,100,0,79,79,5,-0.30125,0.5755555555555556,1,0,0,1.347523800097406,target,001,part1,2018_Dec_24_1908,fitts,60.0361177378626,
300,45,400,0,80,80,70,-0.03,0.03111111111111111,1,0,0,0.6490798000013456,target,001,part1,2018_Dec_24_1908,fitts,60.0361177378626,
200,45,500,0,81,81,89,0.05125,-0.08444444444444445,1,0,0,0.6979991999687627,target,001,part1,2018_Dec_24_1908,fitts,60.0361177378626,
300,45,500,0,82,82,90,0.05,-0.07333333333333333,1,0,0,0.9640986000886187,target,001,part1,2018_Dec_24_1908,fitts,60.0361177378626,
200,45,300,0,83,83,49,-0.11875,0.15333333333333332,1,0,0,0.5821599999908358,target,001,part1,2018_Dec_24_1908,fitts,60.0361177378626,
400,75,100,0,84,84,19,-0.33,0.4866666666666667,1,0,0,0.4652775999857113,target,001,part1,2018_Dec_24_1908,fitts,60.0361177378626,
100,15,200,0,85,85,20,-0.11875,0.5511111111111111,1,0,0,0.747966599999927,target,001,part1,2018_Dec_24_1908,fitts,60.0361177378626,
400,45,500,0,86,86,91,0.0825,-0.12222222222222222,1,0,0,1.347546000033617,target,001,part1,2018_Dec_24_1908,fitts,60.0361177378626,
200,60,400,0,87,87,73,-0.11625,-0.10444444444444445,1,0,0,0.9157652999274433,target,001,part1,2018_Dec_24_1908,fitts,60.0361177378626,
100,75,500,0,88,88,96,-0.2175,-0.3933333333333333,1,0,0,1.0979048000881448,target,001,part1,2018_Dec_24_1908,fitts,60.0361177378626,
400,45,300,0,89,89,51,-0.115,0.19333333333333333,1,0,0,0.6649199000094086,target,001,part1,2018_Dec_24_1908,fitts,60.0361177378626,
300,45,100,0,90,90,10,-0.3275,0.5466666666666666,1,0,0,0.6646263999864459,target,001,part1,2018_Dec_24_1908,fitts,60.0361177378626,
200,15,100,0,91,91,1,-0.2325,0.5955555555555555,1,0,0,0.6819520000135526,target,001,part1,2018_Dec_24_1908,fitts,60.0361177378626,
100,60,500,0,92,92,92,-0.06,-0.3088888888888889,1,0,0,1.114462099969387,target,001,part1,2018_Dec_24_1908,fitts,60.0361177378626,
300,45,300,0,93,93,50,-0.07125,0.19555555555555557,1,0,0,0.747714199940674,target,001,part1,2018_Dec_24_1908,fitts,60.0361177378626,
400,15,100,0,94,94,3,-0.28875,0.5933333333333334,1,0,0,0.565332300029695,target,001,part1,2018_Dec_24_1908,fitts,60.0361177378626,
300,30,200,0,95,95,26,-0.1425,0.43555555555555553,1,0,0,0.6484909999417141,target,001,part1,2018_Dec_24_1908,fitts,60.0361177378626,
300,30,500,0,96,96,86,0.19,0.06222222222222222,1,0,0,0.6317118000006303,target,001,part1,2018_Dec_24_1908,fitts,60.0361177378626,
400,60,300,0,97,97,55,-0.145,0.14888888888888888,1,0,0,0.5986315000336617,target,001,part1,2018_Dec_24_1908,fitts,60.0361177378626,
100,30,400,0,98,98,64,0.06,0.2088888888888889,1,0,0,0.9644884000299498,target,001,part1,2018_Dec_24_1908,fitts,60.0361177378626,
400,60,500,0,99,99,95,-0.07,-0.2111111111111111,1,0,0,0.7483027999987826,target,001,part1,2018_Dec_24_1908,fitts,60.0361177378626,
100,45,400,1,0,100,68,-0.04,0.042222222222222223,1,0,0,0.9977416000328958,target,001,part1,2018_Dec_24_1908,fitts,60.0361177378626,
400,15,300,1,1,101,43,0.0075,0.4111111111111111,1,0,0,0.5985253000399098,target,001,part1,2018_Dec_24_1908,fitts,60.0361177378626,
100,75,100,1,2,102,16,-0.34375,0.44666666666666666,1,0,0,0.7818673000438139,target,001,part1,2018_Dec_24_1908,fitts,60.0361177378626,
400,15,400,1,3,103,63,0.1475,0.4266666666666667,1,0,0,0.8476833000313491,target,001,part1,2018_Dec_24_1908,fitts,60.0361177378626,
400,30,400,1,4,104,67,0.00125,0.2777777777777778,1,0,0,0.748808000003919,target,001,part1,2018_Dec_24_1908,fitts,60.0361177378626,
200,30,200,1,5,105,25,-0.16125,0.4666666666666667,1,0,0,0.6486740000545979,target,001,part1,2018_Dec_24_1908,fitts,60.0361177378626,
200,15,500,1,6,106,81,0.2125,0.38666666666666666,1,0,0,0.7150971000082791,target,001,part1,2018_Dec_24_1908,fitts,60.0361177378626,
100,60,500,1,7,107,92,-0.06,-0.2866666666666667,1,0,0,1.014426999958232,target,001,part1,2018_Dec_24_1908,fitts,60.0361177378626,
400,60,400,1,8,108,75,-0.0775,-0.16666666666666666,1,0,0,0.5485628000460565,target,001,part1,2018_Dec_24_1908,fitts,60.0361177378626,
200,75,100,1,9,109,17,-0.3725,0.48,1,0,0,0.9144677999429405,target,001,part1,2018_Dec_24_1908,fitts,60.0361177378626,
200,60,400,1,10,110,73,-0.125,-0.09777777777777778,1,0,0,0.8480182000203058,target,001,part1,2018_Dec_24_1908,fitts,60.0361177378626,
400,45,400,1,11,111,71,0.00125,-0.08,1,0,0,0.531672100070864,target,001,part1,2018_Dec_24_1908,fitts,60.0361177378626,
200,45,400,1,12,112,69,0.0,-0.024444444444444446,1,0,0,0.6654802999692038,target,001,part1,2018_Dec_24_1908,fitts,60.0361177378626,
200,45,500,1,13,113,89,0.06375,-0.08888888888888889,1,0,0,0.7647729000309482,target,001,part1,2018_Dec_24_1908,fitts,60.0361177378626,
200,45,300,1,14,114,49,-0.08125,0.15333333333333332,1,0,0,0.5821739000966772,target,001,part1,2018_Dec_24_1908,fitts,60.0361177378626,
300,75,100,1,15,115,18,-0.30875,0.44222222222222224,1,0,0,0.5819966000271961,target,001,part1,2018_Dec_24_1908,fitts,60.0361177378626,
200,45,100,1,16,116,9,-0.2825,0.4955555555555556,1,0,0,0.5987202000105754,target,001,part1,2018_Dec_24_1908,fitts,60.0361177378626,
100,60,400,1,17,117,72,-0.12875,-0.10444444444444445,1,0,0,0.9814169000601396,target,001,part1,2018_Dec_24_1908,fitts,60.0361177378626,
400,60,200,1,18,118,35,-0.21,0.34,1,0,0,0.48193620005622506,target,001,part1,2018_Dec_24_1908,fitts,60.0361177378626,
400,30,500,1,19,119,87,0.1075,0.10444444444444445,1,0,0,0.6816212999401614,target,001,part1,2018_Dec_24_1908,fitts,60.0361177378626,
300,45,400,1,20,120,70,-0.03,0.011111111111111112,1,0,0,0.5489771999418736,target,001,part1,2018_Dec_24_1908,fitts,60.0361177378626,
300,75,400,1,21,121,78,-0.2275,-0.12444444444444444,1,0,0,0.8324535000137985,target,001,part1,2018_Dec_24_1908,fitts,60.0361177378626,
100,30,100,1,22,122,4,-0.25125,0.5288888888888889,1,0,0,0.8478951000142843,target,001,part1,2018_Dec_24_1908,fitts,60.0361177378626,
300,15,500,1,23,123,82,0.24125,0.2822222222222222,1,0,0,0.7152656000107527,target,001,part1,2018_Dec_24_1908,fitts,60.0361177378626,
200,75,500,1,24,124,97,-0.19875,-0.3844444444444444,1,0,0,0.7818824000423774,target,001,part1,2018_Dec_24_1908,fitts,60.0361177378626,
200,60,300,1,25,125,53,-0.1725,0.07111111111111111,1,0,0,0.6980713999364525,target,001,part1,2018_Dec_24_1908,fitts,60.0361177378626,
200,15,300,1,26,126,41,-0.0125,0.45555555555555555,1,0,0,0.9148338999366388,target,001,part1,2018_Dec_24_1908,fitts,60.0361177378626,
200,15,400,1,27,127,61,0.11125,0.4444444444444444,1,0,0,1.0475116999587044,target,001,part1,2018_Dec_24_1908,fitts,60.0361177378626,
100,75,500,1,28,128,96,-0.21625,-0.3888888888888889,1,0,0,0.9983775999862701,target,001,part1,2018_Dec_24_1908,fitts,60.0361177378626,
400,30,300,1,29,129,47,-0.02875,0.3244444444444444,1,0,0,0.5813964999979362,target,001,part1,2018_Dec_24_1908,fitts,60.0361177378626,
300,45,200,1,30,130,30,-0.1525,0.3088888888888889,1,0,0,0.498470300110057,target,001,part1,2018_Dec_24_1908,fitts,60.0361177378626,
400,30,200,1,31,131,27,-0.1625,0.3933333333333333,1,0,0,0.5486052000196651,target,001,part1,2018_Dec_24_1908,fitts,60.0361177378626,
300,60,400,1,32,132,74,-0.1075,-0.03333333333333333,1,0,0,0.5823467000154778,target,001,part1,2018_Dec_24_1908,fitts,60.0361177378626,
400,60,500,1,33,133,95,-0.04125,-0.1688888888888889,1,0,0,0.565120300045237,target,001,part1,2018_Dec_24_1908,fitts,60.0361177378626,
400,15,500,1,34,134,83,0.25375,0.33555555555555555,1,0,0,0.5817268999526277,target,001,part1,2018_Dec_24_1908,fitts,60.0361177378626,
300,30,400,1,35,135,66,0.055,0.15777777777777777,1,0,0,0.7151582000078633,target,001,part1,2018_Dec_24_1908,fitts,60.0361177378626,
100,45,300,1,36,136,48,-0.1175,0.18444444444444444,1,0,0,0.7150349000003189,target,001,part1,2018_Dec_24_1908,fitts,60.0361177378626,
400,45,100,1,37,137,11,-0.35375,0.5333333333333333,1,0,0,0.9311486000660807,target,001,part1,2018_Dec_24_1908,fitts,60.0361177378626,
400,45,200,1,38,138,31,-0.20625,0.3888888888888889,1,0,0,0.598256399971433,target,001,part1,2018_Dec_24_1908,fitts,60.0361177378626,
400,75,500,1,39,139,99,-0.16375,-0.42444444444444446,1,0,0,0.748270699987188,target,001,part1,2018_Dec_24_1908,fitts,60.0361177378626,
200,30,400,1,40,140,65,0.055,0.19777777777777777,1,0,0,0.6484734999248758,target,001,part1,2018_Dec_24_1908,fitts,60.0361177378626,
400,75,200,1,41,141,39,-0.30375,0.20222222222222222,1,0,0,0.6983647999586537,target,001,part1,2018_Dec_24_1908,fitts,60.0361177378626,
400,75,100,1,42,142,19,-0.29875,0.47333333333333333,1,0,0,0.46490659995470196,target,001,part1,2018_Dec_24_1908,fitts,60.0361177378626,
100,15,300,1,43,143,40,-0.02,0.49777777777777776,1,0,0,0.8819197999546304,target,001,part1,2018_Dec_24_1908,fitts,60.0361177378626,
100,15,100,1,44,144,0,-0.26625,0.6022222222222222,1,0,0,0.8816409000428393,target,001,part1,2018_Dec_24_1908,fitts,60.0361177378626,
300,15,100,1,45,145,2,-0.22,0.5555555555555556,1,0,0,0.4493537999223918,target,001,part1,2018_Dec_24_1908,fitts,60.0361177378626,
300,60,200,1,46,146,34,-0.2275,0.3377777777777778,1,0,0,0.6814833999378607,target,001,part1,2018_Dec_24_1908,fitts,60.0361177378626,
400,45,300,1,47,147,51,-0.11125,0.19333333333333333,1,0,0,0.5647733000805601,target,001,part1,2018_Dec_24_1908,fitts,60.0361177378626,
200,15,100,1,48,148,1,-0.3375,0.6333333333333333,1,0,0,0.6165482000214979,target,001,part1,2018_Dec_24_1908,fitts,60.0361177378626,
300,30,200,1,49,149,26,-0.14375,0.47555555555555556,1,0,0,0.5989414000650868,target,001,part1,2018_Dec_24_1908,fitts,60.0361177378626,
100,30,300,1,50,150,44,-0.045,0.32666666666666666,1,0,0,0.7484410000033677,target,001,part1,2018_Dec_24_1908,fitts,60.0361177378626,
300,75,300,1,51,151,58,-0.265,0.07111111111111111,1,0,0,0.7651688999030739,target,001,part1,2018_Dec_24_1908,fitts,60.0361177378626,
100,30,200,1,52,152,24,-0.15125,0.4288888888888889,1,0,0,1.0145809999667108,target,001,part1,2018_Dec_24_1908,fitts,60.0361177378626,
200,75,400,1,53,153,77,-0.21875,-0.20444444444444446,1,0,0,0.7156145999906585,target,001,part1,2018_Dec_24_1908,fitts,60.0361177378626,
200,75,300,1,54,154,57,-0.26,0.044444444444444446,1,0,0,0.6650284000206739,target,001,part1,2018_Dec_24_1908,fitts,60.0361177378626,
300,60,100,1,55,155,14,-0.30375,0.46,1,0,0,0.6151851000031456,target,001,part1,2018_Dec_24_1908,fitts,60.0361177378626,
200,60,100,1,56,156,13,-0.2975,0.4955555555555556,1,0,0,0.482089199940674,target,001,part1,2018_Dec_24_1908,fitts,60.0361177378626,
300,30,100,1,57,157,6,-0.23875,0.49777777777777776,1,0,0,0.5151415999280289,target,001,part1,2018_Dec_24_1908,fitts,60.0361177378626,
200,75,200,1,58,158,37,-0.28625,0.2644444444444444,1,0,0,0.7156938000116497,target,001,part1,2018_Dec_24_1908,fitts,60.0361177378626,
100,75,200,1,59,159,36,-0.29625,0.26,1,0,0,0.7981909000081941,target,001,part1,2018_Dec_24_1908,fitts,60.0361177378626,
400,75,300,1,60,160,59,-0.2675,0.06,1,0,0,0.7146260000299662,target,001,part1,2018_Dec_24_1908,fitts,60.0361177378626,
100,15,400,1,61,161,60,0.105,0.43333333333333335,1,0,0,0.9318996999645606,target,001,part1,2018_Dec_24_1908,fitts,60.0361177378626,
200,60,200,1,62,162,33,-0.23375,0.2822222222222222,1,0,0,0.5166169999865815,target,001,part1,2018_Dec_24_1908,fitts,60.0361177378626,
300,30,500,1,63,163,86,0.21,0.08666666666666667,1,0,0,1.1475805999943987,target,001,part1,2018_Dec_24_1908,fitts,60.0361177378626,
300,75,200,1,64,164,38,-0.305,0.24666666666666667,1,0,0,0.6980093000456691,target,001,part1,2018_Dec_24_1908,fitts,60.0361177378626,
100,75,400,1,65,165,76,-0.25125,-0.18444444444444444,1,0,0,1.1644417000934482,target,001,part1,2018_Dec_24_1908,fitts,60.0361177378626,
300,45,500,1,66,166,90,0.06,-0.044444444444444446,1,0,0,0.9315863000229001,target,001,part1,2018_Dec_24_1908,fitts,60.0361177378626,
100,60,200,1,67,167,32,-0.26,0.31555555555555553,1,0,0,0.7641588000115007,target,001,part1,2018_Dec_24_1908,fitts,60.0361177378626,
100,30,400,1,68,168,64,0.0525,0.19777777777777777,1,0,0,0.9813744999701157,target,001,part1,2018_Dec_24_1908,fitts,60.0361177378626,
200,45,200,1,69,169,29,-0.165,0.36,1,0,0,0.6157213000115007,target,001,part1,2018_Dec_24_1908,fitts,60.0361177378626,
100,60,100,1,70,170,12,-0.31125,0.4888888888888889,1,0,0,0.8647126000141725,target,001,part1,2018_Dec_24_1908,fitts,60.0361177378626,
300,45,100,1,71,171,10,-0.275,0.4822222222222222,1,0,0,0.5984416999854147,target,001,part1,2018_Dec_24_1908,fitts,60.0361177378626,
100,15,500,1,72,172,80,0.27125,0.35555555555555557,1,0,0,1.2478090999647975,target,001,part1,2018_Dec_24_1908,fitts,60.0361177378626,
400,60,300,1,73,173,55,-0.1825,0.11333333333333333,1,0,0,0.5819873999571428,target,001,part1,2018_Dec_24_1908,fitts,60.0361177378626,
200,30,100,1,74,174,5,-0.275,0.4955555555555556,1,0,0,0.7980450999457389,target,001,part1,2018_Dec_24_1908,fitts,60.0361177378626,
100,75,300,1,75,175,56,-0.2625,0.04,1,0,0,0.9981509000062943,target,001,part1,2018_Dec_24_1908,fitts,60.0361177378626,
100,45,200,1,76,176,28,-0.19375,0.3511111111111111,1,0,0,1.1147697999840602,target,001,part1,2018_Dec_24_1908,fitts,60.0361177378626,
100,45,500,1,77,177,88,0.07625,-0.13111111111111112,1,0,0,0.7650787000311539,target,001,part1,2018_Dec_24_1908,fitts,60.0361177378626,
200,15,200,1,78,178,21,-0.1575,0.5066666666666667,1,0,0,0.6485500000417233,target,001,part1,2018_Dec_24_1908,fitts,60.0361177378626,
300,45,300,1,79,179,50,-0.105,0.26666666666666666,1,0,0,0.6818317999131978,target,001,part1,2018_Dec_24_1908,fitts,60.0361177378626,
300,60,500,1,80,180,94,-0.025,-0.2733333333333333,1,0,0,0.8651370999868959,target,001,part1,2018_Dec_24_1908,fitts,60.0361177378626,
100,15,200,1,81,181,20,-0.1325,0.5577777777777778,1,0,0,1.1818249000934884,target,001,part1,2018_Dec_24_1908,fitts,60.0361177378626,
300,15,400,1,82,182,62,0.09,0.43333333333333335,1,0,0,0.7651035999879241,target,001,part1,2018_Dec_24_1908,fitts,60.0361177378626,
300,60,300,1,83,183,54,-0.19625,0.1111111111111111,1,0,0,0.8326555999228731,target,001,part1,2018_Dec_24_1908,fitts,60.0361177378626,
300,30,300,1,84,184,46,-0.07875,0.3711111111111111,1,0,0,0.7811085999710485,target,001,part1,2018_Dec_24_1908,fitts,60.0361177378626,
100,30,500,1,85,185,84,0.1625,0.10666666666666667,1,0,0,0.9646088000154123,target,001,part1,2018_Dec_24_1908,fitts,60.0361177378626,
300,75,500,1,86,186,98,-0.16625,-0.3288888888888889,1,0,0,0.7318310000700876,target,001,part1,2018_Dec_24_1908,fitts,60.0361177378626,
200,30,300,1,87,187,45,-0.03625,0.36666666666666664,1,0,0,0.7312688999809325,target,001,part1,2018_Dec_24_1908,fitts,60.0361177378626,
400,45,500,1,88,188,91,0.07,-0.12222222222222222,1,0,0,0.6147478999337181,target,001,part1,2018_Dec_24_1908,fitts,60.0361177378626,
400,15,200,1,89,189,23,-0.18,0.5444444444444444,1,0,0,0.5818238999927416,target,001,part1,2018_Dec_24_1908,fitts,60.0361177378626,
400,30,100,1,90,190,7,-0.245,0.56,1,0,0,0.432089899899438,target,001,part1,2018_Dec_24_1908,fitts,60.0361177378626,
200,30,500,1,91,191,85,0.17,0.04888888888888889,1,0,0,0.7483673000242561,target,001,part1,2018_Dec_24_1908,fitts,60.0361177378626,
400,60,100,1,92,192,15,-0.3075,0.5155555555555555,1,0,0,0.4983502000104636,target,001,part1,2018_Dec_24_1908,fitts,60.0361177378626,
300,15,200,1,93,193,22,-0.15,0.5111111111111111,1,0,0,0.5651153000071645,target,001,part1,2018_Dec_24_1908,fitts,60.0361177378626,
100,45,100,1,94,194,8,-0.28125,0.5133333333333333,1,0,0,0.6811829999787733,target,001,part1,2018_Dec_24_1908,fitts,60.0361177378626,
300,15,300,1,95,195,42,-0.04875,0.4533333333333333,1,0,0,0.7817434000317007,target,001,part1,2018_Dec_24_1908,fitts,60.0361177378626,
100,60,300,1,96,196,52,-0.2,0.10222222222222223,1,0,0,0.8314030000474304,target,001,part1,2018_Dec_24_1908,fitts,60.0361177378626,
400,15,100,1,97,197,3,-0.2575,0.52,1,0,0,0.531643999973312,target,001,part1,2018_Dec_24_1908,fitts,60.0361177378626,
400,75,400,1,98,198,79,-0.24625,-0.051111111111111114,1,0,0,0.6312133999308571,target,001,part1,2018_Dec_24_1908,fitts,60.0361177378626,
200,60,500,1,99,199,93,-0.02875,-0.3022222222222222,1,0,0,0.6816848999587819,target,001,part1,2018_Dec_24_1908,fitts,60.0361177378626,
400,45,400,2,0,200,71,-0.04625,0.04,1,0,0,0.6483722999691963,target,001,part1,2018_Dec_24_1908,fitts,60.0361177378626,
400,15,100,2,1,201,3,-0.2925,0.6066666666666667,1,0,0,0.515357100055553,target,001,part1,2018_Dec_24_1908,fitts,60.0361177378626,
100,75,200,2,2,202,36,-0.29625,0.25333333333333335,1,0,0,0.83162029995583,target,001,part1,2018_Dec_24_1908,fitts,60.0361177378626,
400,45,300,2,3,203,51,-0.11,0.2111111111111111,1,0,0,0.6485293000005186,target,001,part1,2018_Dec_24_1908,fitts,60.0361177378626,
300,15,100,2,4,204,2,-0.26125,0.5844444444444444,1,0,0,0.6825799000216648,target,001,part1,2018_Dec_24_1908,fitts,60.0361177378626,
300,45,500,2,5,205,90,0.09375,-0.12444444444444444,1,0,0,0.698417600011453,target,001,part1,2018_Dec_24_1908,fitts,60.0361177378626,
100,75,300,2,6,206,56,-0.285,0.03333333333333333,1,0,0,0.8646293999627233,target,001,part1,2018_Dec_24_1908,fitts,60.0361177378626,
300,15,400,2,7,207,62,0.08375,0.4088888888888889,1,0,0,1.0981389000080526,target,001,part1,2018_Dec_24_1908,fitts,60.0361177378626,
100,15,200,2,8,208,20,-0.12375,0.5533333333333333,1,0,0,0.7646999999415129,target,001,part1,2018_Dec_24_1908,fitts,60.0361177378626,
100,15,500,2,9,209,80,0.23625,0.3888888888888889,1,0,0,0.9647842000704259,target,001,part1,2018_Dec_24_1908,fitts,60.0361177378626,
300,75,400,2,10,210,78,-0.2575,-0.1622222222222222,1,0,0,0.781593200052157,target,001,part1,2018_Dec_24_1908,fitts,60.0361177378626,
100,30,300,2,11,211,44,-0.05125,0.3244444444444444,1,0,0,0.8483250000281259,target,001,part1,2018_Dec_24_1908,fitts,60.0361177378626,
200,75,100,2,12,212,17,-0.34,0.4533333333333333,1,0,0,0.4821754000149667,target,001,part1,2018_Dec_24_1908,fitts,60.0361177378626,
300,45,100,2,13,213,10,-0.26625,0.46444444444444444,1,0,0,0.4651465000351891,target,001,part1,2018_Dec_24_1908,fitts,60.0361177378626,
400,60,300,2,14,214,55,-0.17625,0.15555555555555556,1,0,0,0.5985190999926999,target,001,part1,2018_Dec_24_1908,fitts,60.0361177378626,
400,30,300,2,15,215,47,-0.05125,0.3422222222222222,1,0,0,0.5818299999227747,target,001,part1,2018_Dec_24_1908,fitts,60.0361177378626,
300,45,300,2,16,216,50,-0.09875,0.1622222222222222,1,0,0,0.5984486000379547,target,001,part1,2018_Dec_24_1908,fitts,60.0361177378626,
200,45,400,2,17,217,69,-0.04,0.07777777777777778,1,0,0,0.5311422999948263,target,001,part1,2018_Dec_24_1908,fitts,60.0361177378626,
400,15,400,2,18,218,63,0.0575,0.38666666666666666,1,0,0,0.7318919999524951,target,001,part1,2018_Dec_24_1908,fitts,60.0361177378626,
100,30,200,2,19,219,24,-0.145,0.4311111111111111,1,0,0,0.8149527999339625,target,001,part1,2018_Dec_24_1908,fitts,60.0361177378626,
400,15,300,2,20,220,43,-0.06375,0.43555555555555553,1,0,0,0.5822734000394121,target,001,part1,2018_Dec_24_1908,fitts,60.0361177378626,
100,15,100,2,21,221,0,-0.21625,0.5688888888888889,1,0,0,0.9809258000459522,target,001,part1,2018_Dec_24_1908,fitts,60.0361177378626,
300,30,400,2,22,222,66,0.04,0.2733333333333333,1,0,0,0.5985480999806896,target,001,part1,2018_Dec_24_1908,fitts,60.0361177378626,
400,75,100,2,23,223,19,-0.3175,0.5111111111111111,1,0,0,0.5151485999813303,target,001,part1,2018_Dec_24_1908,fitts,60.0361177378626,
300,45,400,2,24,224,70,0.00625,0.0022222222222222222,1,0,0,0.6982017999980599,target,001,part1,2018_Dec_24_1908,fitts,60.0361177378626,
400,60,400,2,25,225,75,-0.135,0.022222222222222223,1,0,0,0.7481106000486761,target,001,part1,2018_Dec_24_1908,fitts,60.0361177378626,
400,45,200,2,26,226,31,-0.20375,0.33111111111111113,1,0,0,0.6651543999323621,target,001,part1,2018_Dec_24_1908,fitts,60.0361177378626,
400,30,200,2,27,227,27,-0.15625,0.37333333333333335,1,0,0,0.5819992000469938,target,001,part1,2018_Dec_24_1908,fitts,60.0361177378626,
200,45,500,2,28,228,89,0.07125,-0.08888888888888889,1,0,0,0.7983510999474674,target,001,part1,2018_Dec_24_1908,fitts,60.0361177378626,
200,45,200,2,29,229,29,-0.205,0.32666666666666666,1,0,0,0.8645213999552652,target,001,part1,2018_Dec_24_1908,fitts,60.0361177378626,
100,60,200,2,30,230,32,-0.245,0.32222222222222224,1,0,0,0.7149042000528425,target,001,part1,2018_Dec_24_1908,fitts,60.0361177378626,
100,60,100,2,31,231,12,-0.315,0.4777777777777778,1,0,0,0.664818000048399,target,001,part1,2018_Dec_24_1908,fitts,60.0361177378626,
200,45,100,2,32,232,9,-0.29625,0.4911111111111111,1,0,0,0.8649879000149667,target,001,part1,2018_Dec_24_1908,fitts,60.0361177378626,
400,15,500,2,33,233,83,0.22125,0.3622222222222222,1,0,0,0.8316196000669152,target,001,part1,2018_Dec_24_1908,fitts,60.0361177378626,
100,15,300,2,34,234,40,-0.02875,0.4888888888888889,1,0,0,1.5306882000295445,target,001,part1,2018_Dec_24_1908,fitts,60.0361177378626,
200,15,200,2,35,235,21,-0.14875,0.5422222222222223,1,0,0,1.0803382000885904,target,001,part1,2018_Dec_24_1908,fitts,60.0361177378626,
200,60,300,2,36,236,53,-0.1625,0.10222222222222223,1,0,0,0.7477961999829859,target,001,part1,2018_Dec_24_1908,fitts,60.0361177378626,
400,60,100,2,37,237,15,-0.3,0.4111111111111111,1,0,0,0.5987297999672592,target,001,part1,2018_Dec_24_1908,fitts,60.0361177378626,
400,30,500,2,38,238,87,0.225,0.03111111111111111,1,0,0,0.8157785999355838,target,001,part1,2018_Dec_24_1908,fitts,60.0361177378626,
400,15,200,2,39,239,23,-0.1025,0.45555555555555555,1,0,0,0.6987297999439761,target,001,part1,2018_Dec_24_1908,fitts,60.0361177378626,
200,30,400,2,40,240,65,0.10375,0.20222222222222222,1,0,0,0.7653135999571532,target,001,part1,2018_Dec_24_1908,fitts,60.0361177378626,
300,60,400,2,41,241,74,-0.0975,-0.07777777777777778,1,0,0,0.9977097999071702,target,001,part1,2018_Dec_24_1908,fitts,60.0361177378626,
300,30,300,2,42,242,46,-0.03,0.31333333333333335,1,0,0,1.0978307999903336,target,001,part1,2018_Dec_24_1908,fitts,60.0361177378626,
200,30,300,2,43,243,45,-0.07,0.3511111111111111,1,0,0,0.8822401999495924,target,001,part1,2018_Dec_24_1908,fitts,60.0361177378626,
300,30,500,2,44,244,86,0.1675,0.09111111111111111,1,0,0,1.0820237000007182,target,001,part1,2018_Dec_24_1908,fitts,60.0361177378626,
300,15,300,2,45,245,42,0.00375,0.44222222222222224,1,0,0,0.716301399981603,target,001,part1,2018_Dec_24_1908,fitts,60.0361177378626,
100,45,100,2,46,246,8,-0.27875,0.4888888888888889,1,0,0,0.9312414999585599,target,001,part1,2018_Dec_24_1908,fitts,60.0361177378626,
100,45,200,2,47,247,28,-0.19375,0.36,1,0,0,0.749487999943085,target,001,part1,2018_Dec_24_1908,fitts,60.0361177378626,
100,75,100,2,48,248,16,-0.34,0.46,1,0,0,0.6478098999941722,target,001,part1,2018_Dec_24_1908,fitts,60.0361177378626,
400,75,300,2,49,249,59,-0.2275,0.06444444444444444,1,0,0,0.5653032000409439,target,001,part1,2018_Dec_24_1908,fitts,60.0361177378626,
100,30,100,2,50,250,4,-0.28375,0.5755555555555556,1,0,0,0.6815848000114784,target,001,part1,2018_Dec_24_1908,fitts,60.0361177378626,
100,75,500,2,51,251,96,-0.2025,-0.4022222222222222,1,0,0,1.2973065000260249,target,001,part1,2018_Dec_24_1908,fitts,60.0361177378626,
300,30,100,2,52,252,6,-0.24375,0.5,1,0,0,0.581065500038676,target,001,part1,2018_Dec_24_1908,fitts,60.0361177378626,
100,60,500,2,53,253,92,-0.05875,-0.2777777777777778,1,0,0,0.915271700010635,target,001,part1,2018_Dec_24_1908,fitts,60.0361177378626,
300,60,200,2,54,254,34,-0.23875,0.28888888888888886,1,0,0,1.0483391999732703,target,001,part1,2018_Dec_24_1908,fitts,60.0361177378626,
400,30,100,2,55,255,7,-0.2625,0.5466666666666666,1,0,0,0.5656302999705076,target,001,part1,2018_Dec_24_1908,fitts,60.0361177378626,
200,30,500,2,56,256,85,0.19125,0.11777777777777777,1,0,0,0.8806590000167489,target,001,part1,2018_Dec_24_1908,fitts,60.0361177378626,
300,15,500,2,57,257,82,0.18375,0.43333333333333335,1,0,0,0.6486762999556959,target,001,part1,2018_Dec_24_1908,fitts,60.0361177378626,
200,60,400,2,58,258,73,-0.12125,-0.042222222222222223,1,0,0,0.9982475000433624,target,001,part1,2018_Dec_24_1908,fitts,60.0361177378626,
200,75,400,2,59,259,77,-0.20125,-0.17777777777777778,1,0,0,0.7821980000007898,target,001,part1,2018_Dec_24_1908,fitts,60.0361177378626,
300,60,100,2,60,260,14,-0.315,0.44,1,0,0,0.8806238999823108,target,001,part1,2018_Dec_24_1908,fitts,60.0361177378626,
200,30,200,2,61,261,25,-0.11875,0.44666666666666666,1,0,0,0.7156114000827074,target,001,part1,2018_Dec_24_1908,fitts,60.0361177378626,
100,15,400,2,62,262,60,0.125,0.41555555555555557,1,0,0,0.7306076000677422,target,001,part1,2018_Dec_24_1908,fitts,60.0361177378626,
100,45,400,2,63,263,68,-0.0225,0.02666666666666667,1,0,0,0.7982354999985546,target,001,part1,2018_Dec_24_1908,fitts,60.0361177378626,
200,15,500,2,64,264,81,0.23375,0.35777777777777775,1,0,0,0.8142370999557897,target,001,part1,2018_Dec_24_1908,fitts,60.0361177378626,
200,45,300,2,65,265,49,-0.1075,0.21333333333333335,1,0,0,0.7981091999681666,target,001,part1,2018_Dec_24_1908,fitts,60.0361177378626,
400,45,100,2,66,266,11,-0.22875,0.46444444444444444,1,0,0,0.4649463000241667,target,001,part1,2018_Dec_24_1908,fitts,60.0361177378626,
100,45,300,2,67,267,48,-0.10375,0.18,1,0,0,0.6320921999868006,target,001,part1,2018_Dec_24_1908,fitts,60.0361177378626,
300,75,100,2,68,268,18,-0.2925,0.48,1,0,0,0.6149365999735892,target,001,part1,2018_Dec_24_1908,fitts,60.0361177378626,
400,30,400,2,69,269,67,0.06,0.26666666666666666,1,0,0,0.6478436999022961,target,001,part1,2018_Dec_24_1908,fitts,60.0361177378626,
100,45,500,2,70,270,88,0.0625,-0.10222222222222223,1,0,0,0.8142160000279546,target,001,part1,2018_Dec_24_1908,fitts,60.0361177378626,
300,30,200,2,71,271,26,-0.15375,0.4,1,0,0,0.5985554000362754,target,001,part1,2018_Dec_24_1908,fitts,60.0361177378626,
100,60,300,2,72,272,52,-0.18125,0.10666666666666667,1,0,0,0.8813189999200404,target,001,part1,2018_Dec_24_1908,fitts,60.0361177378626,
100,30,400,2,73,273,64,0.045,0.20222222222222222,1,0,0,0.8979101999429986,target,001,part1,2018_Dec_24_1908,fitts,60.0361177378626,
200,75,500,2,74,274,97,-0.20375,-0.38,1,0,0,0.7479882000479847,target,001,part1,2018_Dec_24_1908,fitts,60.0361177378626,
300,75,300,2,75,275,58,-0.27625,0.051111111111111114,1,0,0,0.6314285000553355,target,001,part1,2018_Dec_24_1908,fitts,60.0361177378626,
100,60,400,2,76,276,72,-0.12375,-0.10222222222222223,1,0,0,0.9647095000836998,target,001,part1,2018_Dec_24_1908,fitts,60.0361177378626,
200,60,200,2,77,277,33,-0.2175,0.24,1,0,0,0.7987514999695122,target,001,part1,2018_Dec_24_1908,fitts,60.0361177378626,
400,60,500,2,78,278,95,-0.05875,-0.3933333333333333,1,0,0,0.5492183000314981,target,001,part1,2018_Dec_24_1908,fitts,60.0361177378626,
200,60,500,2,79,279,93,-0.055,-0.26222222222222225,1,0,0,0.5824653999879956,target,001,part1,2018_Dec_24_1908,fitts,60.0361177378626,
100,75,400,2,80,280,76,-0.25,-0.19111111111111112,1,0,0,0.9311931000556797,target,001,part1,2018_Dec_24_1908,fitts,60.0361177378626,
300,75,200,2,81,281,38,-0.31875,0.3088888888888889,1,0,0,0.5822220999980345,target,001,part1,2018_Dec_24_1908,fitts,60.0361177378626,
400,60,200,2,82,282,35,-0.2375,0.2688888888888889,1,0,0,0.43227610003668815,target,001,part1,2018_Dec_24_1908,fitts,60.0361177378626,
200,75,300,2,83,283,57,-0.2875,0.07555555555555556,1,0,0,0.7647812000941485,target,001,part1,2018_Dec_24_1908,fitts,60.0361177378626,
300,45,200,2,84,284,30,-0.185,0.37555555555555553,1,0,0,0.598504800000228,target,001,part1,2018_Dec_24_1908,fitts,60.0361177378626,
300,60,500,2,85,285,94,-0.04,-0.2822222222222222,1,0,0,0.8474123999476433,target,001,part1,2018_Dec_24_1908,fitts,60.0361177378626,
300,75,500,2,86,286,98,-0.23625,-0.3111111111111111,1,0,0,0.7141927999909967,target,001,part1,2018_Dec_24_1908,fitts,60.0361177378626,
400,45,500,2,87,287,91,0.13875,-0.1,1,0,0,0.6162540001096204,target,001,part1,2018_Dec_24_1908,fitts,60.0361177378626,
400,75,200,2,88,288,39,-0.28375,0.24888888888888888,1,0,0,0.6653078999370337,target,001,part1,2018_Dec_24_1908,fitts,60.0361177378626,
400,75,400,2,89,289,79,-0.25875,-0.08444444444444445,1,0,0,0.6982219000346959,target,001,part1,2018_Dec_24_1908,fitts,60.0361177378626,
100,30,500,2,90,290,84,0.15125,0.11777777777777777,1,0,0,1.1472381999483332,target,001,part1,2018_Dec_24_1908,fitts,60.0361177378626,
200,15,300,2,91,291,41,-0.00625,0.5244444444444445,1,0,0,0.731905399938114,target,001,part1,2018_Dec_24_1908,fitts,60.0361177378626,
200,15,100,2,92,292,1,-0.2475,0.5777777777777777,1,0,0,0.631525699980557,target,001,part1,2018_Dec_24_1908,fitts,60.0361177378626,
200,30,100,2,93,293,5,-0.2425,0.5844444444444444,1,0,0,0.4823018000461161,target,001,part1,2018_Dec_24_1908,fitts,60.0361177378626,
300,60,300,2,94,294,54,-0.19875,0.06444444444444444,1,0,0,0.6987423000391573,target,001,part1,2018_Dec_24_1908,fitts,60.0361177378626,
200,75,200,2,95,295,37,-0.3075,0.26222222222222225,1,0,0,0.6317364999558777,target,001,part1,2018_Dec_24_1908,fitts,60.0361177378626,
300,15,200,2,96,296,22,-0.14,0.49333333333333335,1,0,0,0.5827945000492036,target,001,part1,2018_Dec_24_1908,fitts,60.0361177378626,
200,60,100,2,97,297,13,-0.295,0.46,1,0,0,0.5988792000571266,target,001,part1,2018_Dec_24_1908,fitts,60.0361177378626,
400,75,500,2,98,298,99,-0.19,-0.34444444444444444,1,0,0,0.7650248999707401,target,001,part1,2018_Dec_24_1908,fitts,60.0361177378626,
200,15,400,2,99,299,61,0.13625,0.4666666666666667,1,0,0,0.7809972999384627,target,001,part1,2018_Dec_24_1908,fitts,60.0361177378626,
400,15,400,3,0,300,63,0.0575,0.5222222222222223,1,0,0,0.7315688000526279,target,001,part1,2018_Dec_24_1908,fitts,60.0361177378626,
200,30,500,3,1,301,85,0.18375,0.10888888888888888,1,0,0,0.8316721000010148,target,001,part1,2018_Dec_24_1908,fitts,60.0361177378626,
200,75,200,3,2,302,37,-0.30875,0.2644444444444444,1,0,0,0.6646762000164017,target,001,part1,2018_Dec_24_1908,fitts,60.0361177378626,
400,75,400,3,3,303,79,-0.1875,-0.13555555555555557,1,0,0,0.6317125000059605,target,001,part1,2018_Dec_24_1908,fitts,60.0361177378626,
100,60,400,3,4,304,72,-0.12,-0.12222222222222222,1,0,0,0.6988310000160709,target,001,part1,2018_Dec_24_1908,fitts,60.0361177378626,
400,60,400,3,5,305,75,-0.14875,-0.2311111111111111,1,0,0,0.5478928999509662,target,001,part1,2018_Dec_24_1908,fitts,60.0361177378626,
100,45,500,3,6,306,88,0.07375,-0.12,1,0,0,0.9819372999481857,target,001,part1,2018_Dec_24_1908,fitts,60.0361177378626,
200,45,200,3,7,307,29,-0.23875,0.3688888888888889,1,0,0,0.9314589999848977,target,001,part1,2018_Dec_24_1908,fitts,60.0361177378626,
300,75,100,3,8,308,18,-0.28875,0.4577777777777778,1,0,0,0.6144142999546602,target,001,part1,2018_Dec_24_1908,fitts,60.0361177378626,
200,60,500,3,9,309,93,-0.01,-0.30666666666666664,1,0,0,1.1148742999648675,target,001,part1,2018_Dec_24_1908,fitts,60.0361177378626,
100,30,200,3,10,310,24,-0.16875,0.43333333333333335,1,0,0,0.7807473000138998,target,001,part1,2018_Dec_24_1908,fitts,60.0361177378626,
200,45,100,3,11,311,9,-0.26875,0.49777777777777776,1,0,0,0.731097900075838,target,001,part1,2018_Dec_24_1908,fitts,60.0361177378626,
400,15,500,3,12,312,83,0.18375,0.3466666666666667,1,0,0,0.681243299972266,target,001,part1,2018_Dec_24_1908,fitts,60.0361177378626,
100,30,100,3,13,313,4,-0.26,0.5533333333333333,1,0,0,0.6827324000187218,target,001,part1,2018_Dec_24_1908,fitts,60.0361177378626,
200,15,500,3,14,314,81,0.245,0.3688888888888889,1,0,0,0.7650391000788659,target,001,part1,2018_Dec_24_1908,fitts,60.0361177378626,
100,45,400,3,15,315,68,-0.0175,0.013333333333333334,1,0,0,0.7807266999734566,target,001,part1,2018_Dec_24_1908,fitts,60.0361177378626,
300,15,200,3,16,316,22,-0.15875,0.5577777777777778,1,0,0,0.5653703999705613,target,001,part1,2018_Dec_24_1908,fitts,60.0361177378626,
400,30,100,3,17,317,7,-0.24625,0.5733333333333334,1,0,0,0.43220559996552765,target,001,part1,2018_Dec_24_1908,fitts,60.0361177378626,
200,30,300,3,18,318,45,-0.0425,0.2733333333333333,1,0,0,0.5814578999998048,target,001,part1,2018_Dec_24_1908,fitts,60.0361177378626,
400,45,500,3,19,319,91,0.16375,-0.1622222222222222,1,0,0,0.5653287000022829,target,001,part1,2018_Dec_24_1908,fitts,60.0361177378626,
400,15,100,3,20,320,3,-0.27875,0.5688888888888889,1,0,0,0.5320247000781819,target,001,part1,2018_Dec_24_1908,fitts,60.0361177378626,
100,75,500,3,21,321,96,-0.22375,-0.3888888888888889,1,0,0,0.981434499961324,target,001,part1,2018_Dec_24_1908,fitts,60.0361177378626,
300,30,400,3,22,322,66,0.06875,0.26,1,0,0,0.7161146000726148,target,001,part1,2018_Dec_24_1908,fitts,60.0361177378626,
100,30,500,3,23,323,84,0.1525,0.11555555555555555,1,0,0,0.9979512999998406,target,001,part1,2018_Dec_24_1908,fitts,60.0361177378626,
300,60,400,3,24,324,74,-0.08125,-0.02,1,0,0,0.5495467999717221,target,001,part1,2018_Dec_24_1908,fitts,60.0361177378626,
100,15,500,3,25,325,80,0.21625,0.38666666666666666,1,0,0,1.0983013999648392,target,001,part1,2018_Dec_24_1908,fitts,60.0361177378626,
300,15,100,3,26,326,2,-0.19625,0.5555555555555556,1,0,0,0.4652304999763146,target,001,part1,2018_Dec_24_1908,fitts,60.0361177378626,
400,75,200,3,27,327,39,-0.305,0.3511111111111111,1,0,0,0.6157998000271618,target,001,part1,2018_Dec_24_1908,fitts,60.0361177378626,
300,75,300,3,28,328,58,-0.27875,0.14666666666666667,1,0,0,0.5986854999791831,target,001,part1,2018_Dec_24_1908,fitts,60.0361177378626,
300,30,300,3,29,329,46,-0.03,0.3088888888888889,1,0,0,0.547655800008215,target,001,part1,2018_Dec_24_1908,fitts,60.0361177378626,
400,30,400,3,30,330,67,0.09125,0.10444444444444445,1,0,0,0.78121960000135,target,001,part1,2018_Dec_24_1908,fitts,60.0361177378626,
300,45,400,3,31,331,70,-0.02125,0.057777777777777775,1,0,0,0.5149432000471279,target,001,part1,2018_Dec_24_1908,fitts,60.0361177378626,
400,30,500,3,32,332,87,0.16875,0.08444444444444445,1,0,0,0.9315369999967515,target,001,part1,2018_Dec_24_1908,fitts,60.0361177378626,
200,60,200,3,33,333,33,-0.24125,0.30666666666666664,1,0,0,0.7647945999633521,target,001,part1,2018_Dec_24_1908,fitts,60.0361177378626,
100,30,400,3,34,334,64,0.08,0.2111111111111111,1,0,0,0.6985357999801636,target,001,part1,2018_Dec_24_1908,fitts,60.0361177378626,
300,30,500,3,35,335,86,0.1575,0.14666666666666667,1,0,0,0.8472964999964461,target,001,part1,2018_Dec_24_1908,fitts,60.0361177378626,
300,30,100,3,36,336,6,-0.2775,0.5355555555555556,1,0,0,0.5821944999042898,target,001,part1,2018_Dec_24_1908,fitts,60.0361177378626,
400,45,200,3,37,337,31,-0.14875,0.3088888888888889,1,0,0,0.41458300000522286,target,001,part1,2018_Dec_24_1908,fitts,60.0361177378626,
400,75,500,3,38,338,99,-0.17125,-0.32,1,0,0,0.7983404999831691,target,001,part1,2018_Dec_24_1908,fitts,60.0361177378626,
200,75,100,3,39,339,17,-0.34625,0.46,1,0,0,1.0472170000430197,target,001,part1,2018_Dec_24_1908,fitts,60.0361177378626,
300,60,500,3,40,340,94,-0.0675,-0.2511111111111111,1,0,0,0.7981851999647915,target,001,part1,2018_Dec_24_1908,fitts,60.0361177378626,
100,75,300,3,41,341,56,-0.265,0.03333333333333333,1,0,0,0.9822894999524578,target,001,part1,2018_Dec_24_1908,fitts,60.0361177378626,
200,45,400,3,42,342,69,-0.025,0.03111111111111111,1,0,0,0.8647841000929475,target,001,part1,2018_Dec_24_1908,fitts,60.0361177378626,
400,15,300,3,43,343,43,-0.085,0.4222222222222222,1,0,0,0.598943299963139,target,001,part1,2018_Dec_24_1908,fitts,60.0361177378626,
100,75,100,3,44,344,16,-0.3325,0.4666666666666667,1,0,0,0.6985492000821978,target,001,part1,2018_Dec_24_1908,fitts,60.0361177378626,
300,15,400,3,45,345,62,0.0925,0.48,1,0,0,0.7979512000456452,target,001,part1,2018_Dec_24_1908,fitts,60.0361177378626,
300,60,100,3,46,346,14,-0.3375,0.47333333333333333,1,0,0,1.11603599996306,target,001,part1,2018_Dec_24_1908,fitts,60.0361177378626,
100,60,500,3,47,347,92,-0.05375,-0.3088888888888889,1,0,0,0.883017799933441,target,001,part1,2018_Dec_24_1908,fitts,60.0361177378626,
300,75,400,3,48,348,78,-0.25,-0.11555555555555555,1,0,0,0.615777000086382,target,001,part1,2018_Dec_24_1908,fitts,60.0361177378626,
300,75,500,3,49,349,98,-0.18375,-0.38666666666666666,1,0,0,0.6494084000587463,target,001,part1,2018_Dec_24_1908,fitts,60.0361177378626,
100,45,200,3,50,350,28,-0.18,0.35777777777777775,1,0,0,0.9959801000077277,target,001,part1,2018_Dec_24_1908,fitts,60.0361177378626,
300,60,200,3,51,351,34,-0.22875,0.3022222222222222,1,0,0,0.6984474000055343,target,001,part1,2018_Dec_24_1908,fitts,60.0361177378626,
400,60,300,3,52,352,55,-0.16,0.18444444444444444,1,0,0,0.8138908999972045,target,001,part1,2018_Dec_24_1908,fitts,60.0361177378626,
400,15,200,3,53,353,23,-0.15125,0.5844444444444444,1,0,0,0.7987026999471709,target,001,part1,2018_Dec_24_1908,fitts,60.0361177378626,
200,75,300,3,54,354,57,-0.265,0.022222222222222223,1,0,0,0.8152988000074401,target,001,part1,2018_Dec_24_1908,fitts,60.0361177378626,
300,15,500,3,55,355,82,0.23125,0.46444444444444444,1,0,0,0.6317187000531703,target,001,part1,2018_Dec_24_1908,fitts,60.0361177378626,
200,15,400,3,56,356,61,0.10625,0.43555555555555553,1,0,0,0.7316480999579653,target,001,part1,2018_Dec_24_1908,fitts,60.0361177378626,
200,60,400,3,57,357,73,-0.13125,-0.042222222222222223,1,0,0,0.8304523000260815,target,001,part1,2018_Dec_24_1908,fitts,60.0361177378626,
200,30,200,3,58,358,25,-0.1875,0.44666666666666666,1,0,0,0.58227740006987,target,001,part1,2018_Dec_24_1908,fitts,60.0361177378626,
200,75,500,3,59,359,97,-0.21,-0.42444444444444446,1,0,0,1.0316275000805035,target,001,part1,2018_Dec_24_1908,fitts,60.0361177378626,
400,60,200,3,60,360,35,-0.26375,0.3466666666666667,1,0,0,0.4658291001105681,target,001,part1,2018_Dec_24_1908,fitts,60.0361177378626,
400,45,300,3,61,361,51,-0.035,0.18222222222222223,1,0,0,0.7822502000490203,target,001,part1,2018_Dec_24_1908,fitts,60.0361177378626,
400,60,500,3,62,362,95,-0.0725,-0.19111111111111112,1,0,0,0.6148967000190169,target,001,part1,2018_Dec_24_1908,fitts,60.0361177378626,
400,30,300,3,63,363,47,-0.10375,0.3688888888888889,1,0,0,0.5647688000462949,target,001,part1,2018_Dec_24_1908,fitts,60.0361177378626,
100,75,400,3,64,364,76,-0.23625,-0.1688888888888889,1,0,0,1.064510399941355,target,001,part1,2018_Dec_24_1908,fitts,60.0361177378626,
100,30,300,3,65,365,44,-0.05625,0.3088888888888889,1,0,0,0.7983692999696359,target,001,part1,2018_Dec_24_1908,fitts,60.0361177378626,
200,15,200,3,66,366,21,-0.1525,0.5577777777777778,1,0,0,0.5469824000028893,target,001,part1,2018_Dec_24_1908,fitts,60.0361177378626,
200,75,400,3,67,367,77,-0.215,-0.11333333333333333,1,0,0,0.6981688000960276,target,001,part1,2018_Dec_24_1908,fitts,60.0361177378626,
400,75,100,3,68,368,19,-0.37875,0.5066666666666667,1,0,0,0.8647714999970049,target,001,part1,2018_Dec_24_1908,fitts,60.0361177378626,
200,60,100,3,69,369,13,-0.3275,0.4666666666666667,1,0,0,0.665815299958922,target,001,part1,2018_Dec_24_1908,fitts,60.0361177378626,
100,15,400,3,70,370,60,0.10375,0.45111111111111113,1,0,0,0.9648872999241576,target,001,part1,2018_Dec_24_1908,fitts,60.0361177378626,
400,30,200,3,71,371,27,-0.17,0.4955555555555556,1,0,0,0.48270950000733137,target,001,part1,2018_Dec_24_1908,fitts,60.0361177378626,
100,75,200,3,72,372,36,-0.3125,0.23333333333333334,1,0,0,0.8140659000491723,target,001,part1,2018_Dec_24_1908,fitts,60.0361177378626,
100,45,300,3,73,373,48,-0.155,0.3511111111111111,1,0,0,0.4148888000054285,target,001,part1,2018_Dec_24_1908,fitts,60.0361177378626,
400,75,300,3,74,374,59,-0.265,0.10888888888888888,1,0,0,0.6484699998982251,target,001,part1,2018_Dec_24_1908,fitts,60.0361177378626,
300,45,100,3,75,375,10,-0.305,0.5666666666666667,1,0,0,0.5161478000227362,target,001,part1,2018_Dec_24_1908,fitts,60.0361177378626,
100,60,300,3,76,376,52,-0.20375,0.1,1,0,0,0.6829145000083372,target,001,part1,2018_Dec_24_1908,fitts,60.0361177378626,
300,15,300,3,77,377,42,0.00375,0.5,1,0,0,0.74796750000678,target,001,part1,2018_Dec_24_1908,fitts,60.0361177378626,
100,60,100,3,78,378,12,-0.345,0.5022222222222222,1,0,0,0.9138131000800058,target,001,part1,2018_Dec_24_1908,fitts,60.0361177378626,
100,60,200,3,79,379,32,-0.255,0.2822222222222222,1,0,0,0.6484206001041457,target,001,part1,2018_Dec_24_1908,fitts,60.0361177378626,
200,15,300,3,80,380,41,-0.0075,0.4822222222222222,1,0,0,0.7979470000136644,target,001,part1,2018_Dec_24_1908,fitts,60.0361177378626,
100,45,100,3,81,381,8,-0.285,0.5088888888888888,1,0,0,0.9822677000192925,target,001,part1,2018_Dec_24_1908,fitts,60.0361177378626,
200,30,100,3,82,382,5,-0.24125,0.5488888888888889,1,0,0,0.7139339999994263,target,001,part1,2018_Dec_24_1908,fitts,60.0361177378626,
200,15,100,3,83,383,1,-0.2675,0.5888888888888889,1,0,0,0.647905399906449,target,001,part1,2018_Dec_24_1908,fitts,60.0361177378626,
200,60,300,3,84,384,53,-0.1575,0.06222222222222222,1,0,0,0.647510000038892,target,001,part1,2018_Dec_24_1908,fitts,60.0361177378626,
200,45,300,3,85,385,49,-0.1375,0.19777777777777777,1,0,0,0.6647853000322357,target,001,part1,2018_Dec_24_1908,fitts,60.0361177378626,
300,75,200,3,86,386,38,-0.27875,0.24666666666666667,1,0,0,0.5655255999881774,target,001,part1,2018_Dec_24_1908,fitts,60.0361177378626,
200,30,400,3,87,387,65,0.06,0.24666666666666667,1,0,0,0.6487641000421718,target,001,part1,2018_Dec_24_1908,fitts,60.0361177378626,
400,45,100,3,88,388,11,-0.2825,0.4911111111111111,1,0,0,0.5814153000246733,target,001,part1,2018_Dec_24_1908,fitts,60.0361177378626,
300,45,200,3,89,389,30,-0.2225,0.37777777777777777,1,0,0,0.4650986000197008,target,001,part1,2018_Dec_24_1908,fitts,60.0361177378626,
100,15,100,3,90,390,0,-0.27875,0.6533333333333333,1,0,0,0.6827297999989241,target,001,part1,2018_Dec_24_1908,fitts,60.0361177378626,
300,60,300,3,91,391,54,-0.17375,0.1288888888888889,1,0,0,0.6814080000622198,target,001,part1,2018_Dec_24_1908,fitts,60.0361177378626,
100,15,300,3,92,392,40,-0.03625,0.47555555555555556,1,0,0,0.7804717000108212,target,001,part1,2018_Dec_24_1908,fitts,60.0361177378626,
300,30,200,3,93,393,26,-0.16625,0.4577777777777778,1,0,0,0.5480123999295756,target,001,part1,2018_Dec_24_1908,fitts,60.0361177378626,
100,15,200,3,94,394,20,-0.12875,0.5266666666666666,1,0,0,0.9312354000285268,target,001,part1,2018_Dec_24_1908,fitts,60.0361177378626,
300,45,300,3,95,395,50,-0.14375,0.23777777777777778,1,0,0,0.7316417000256479,target,001,part1,2018_Dec_24_1908,fitts,60.0361177378626,
200,45,500,3,96,396,89,0.09,-0.11555555555555555,1,0,0,0.6493998999940231,target,001,part1,2018_Dec_24_1908,fitts,60.0361177378626,
300,45,500,3,97,397,90,0.03625,-0.03777777777777778,1,0,0,0.7142361999722198,target,001,part1,2018_Dec_24_1908,fitts,60.0361177378626,
400,45,400,3,98,398,71,-0.03375,0.03777777777777778,1,0,0,0.5649133999831975,target,001,part1,2018_Dec_24_1908,fitts,60.0361177378626,
400,60,100,3,99,399,15,-0.4275,0.5266666666666666,1,0,0,0.5984951000427827,target,001,part1,2018_Dec_24_1908,fitts,60.0361177378626,
100,45,400,4,0,400,68,-0.01875,0.02666666666666667,1,0,0,0.916155300103128,target,001,part1,2018_Dec_24_1908,fitts,60.0361177378626,
200,45,300,4,1,401,49,-0.0875,0.17555555555555555,1,0,0,0.664943200070411,target,001,part1,2018_Dec_24_1908,fitts,60.0361177378626,
100,60,200,4,2,402,32,-0.24,0.3,1,0,0,0.7485778999980539,target,001,part1,2018_Dec_24_1908,fitts,60.0361177378626,
100,60,500,4,3,403,92,-0.055,-0.29555555555555557,1,0,0,1.0139681999571621,target,001,part1,2018_Dec_24_1908,fitts,60.0361177378626,
400,15,300,4,4,404,43,-0.0875,0.5111111111111111,1,0,0,0.5491133999312297,target,001,part1,2018_Dec_24_1908,fitts,60.0361177378626,
100,45,100,4,5,405,8,-0.2925,0.49333333333333335,1,0,0,0.6316610999638215,target,001,part1,2018_Dec_24_1908,fitts,60.0361177378626,
100,75,200,4,6,406,36,-0.2925,0.24666666666666667,1,0,0,0.7316607000539079,target,001,part1,2018_Dec_24_1908,fitts,60.0361177378626,
400,15,100,4,7,407,3,-0.25375,0.5288888888888889,1,0,0,0.48159899993333966,target,001,part1,2018_Dec_24_1908,fitts,60.0361177378626,
400,30,400,4,8,408,67,0.02125,0.2577777777777778,1,0,0,0.6660656000021845,target,001,part1,2018_Dec_24_1908,fitts,60.0361177378626,
300,30,200,4,9,409,26,-0.1225,0.41555555555555557,1,0,0,0.6814932998968288,target,001,part1,2018_Dec_24_1908,fitts,60.0361177378626,
100,45,200,4,10,410,28,-0.19625,0.35333333333333333,1,0,0,0.9650699000339955,target,001,part1,2018_Dec_24_1908,fitts,60.0361177378626,
400,30,100,4,11,411,7,-0.3025,0.5711111111111111,1,0,0,0.598932099994272,target,001,part1,2018_Dec_24_1908,fitts,60.0361177378626,
200,15,100,4,12,412,1,-0.27375,0.6066666666666667,1,0,0,0.6981962999561802,target,001,part1,2018_Dec_24_1908,fitts,60.0361177378626,
100,15,200,4,13,413,20,-0.1325,0.5266666666666666,1,0,0,1.3484773999080062,target,001,part1,2018_Dec_24_1908,fitts,60.0361177378626,
200,15,200,4,14,414,21,-0.125,0.5755555555555556,1,0,0,0.9982604999095201,target,001,part1,2018_Dec_24_1908,fitts,60.0361177378626,
100,60,400,4,15,415,72,-0.10875,-0.10222222222222223,1,0,0,1.114105699933134,target,001,part1,2018_Dec_24_1908,fitts,60.0361177378626,
100,45,300,4,16,416,48,-0.10125,0.18222222222222223,1,0,0,0.9821976000675932,target,001,part1,2018_Dec_24_1908,fitts,60.0361177378626,
300,45,200,4,17,417,30,-0.2175,0.38222222222222224,1,0,0,0.6651575000723824,target,001,part1,2018_Dec_24_1908,fitts,60.0361177378626,
200,45,400,4,18,418,69,0.01,0.06666666666666667,1,0,0,0.7823600999545306,target,001,part1,2018_Dec_24_1908,fitts,60.0361177378626,
200,75,100,4,19,419,17,-0.32375,0.4577777777777778,1,0,0,0.8805257000494748,target,001,part1,2018_Dec_24_1908,fitts,60.0361177378626,
100,75,400,4,20,420,76,-0.24625,-0.18,1,0,0,1.013998300069943,target,001,part1,2018_Dec_24_1908,fitts,60.0361177378626,
300,30,300,4,21,421,46,-0.0425,0.37777777777777777,1,0,0,0.6157783000962809,target,001,part1,2018_Dec_24_1908,fitts,60.0361177378626,
100,60,100,4,22,422,12,-0.3125,0.4888888888888889,1,0,0,1.064014400006272,target,001,part1,2018_Dec_24_1908,fitts,60.0361177378626,
400,60,100,4,23,423,15,-0.3,0.47555555555555556,1,0,0,0.43198080000001937,target,001,part1,2018_Dec_24_1908,fitts,60.0361177378626,
100,15,400,4,24,424,60,0.11125,0.4533333333333333,1,0,0,1.0316414000699297,target,001,part1,2018_Dec_24_1908,fitts,60.0361177378626,
400,75,300,4,25,425,59,-0.215,-0.022222222222222223,1,0,0,0.5813878999324515,target,001,part1,2018_Dec_24_1908,fitts,60.0361177378626,
100,75,300,4,26,426,56,-0.2775,0.02,1,0,0,0.5982534000650048,target,001,part1,2018_Dec_24_1908,fitts,60.0361177378626,
300,60,500,4,27,427,94,-0.06875,-0.3111111111111111,1,0,0,1.6969302000943571,target,001,part1,2018_Dec_24_1908,fitts,60.0361177378626,
400,15,200,4,28,428,23,-0.17625,0.6444444444444445,1,0,0,0.6656954999780282,target,001,part1,2018_Dec_24_1908,fitts,60.0361177378626,
300,60,300,4,29,429,54,-0.16375,0.15777777777777777,1,0,0,1.1473727999255061,target,001,part1,2018_Dec_24_1908,fitts,60.0361177378626,
400,60,300,4,30,430,55,-0.21375,0.17333333333333334,1,0,0,0.5311602000147104,target,001,part1,2018_Dec_24_1908,fitts,60.0361177378626,
200,30,100,4,31,431,5,-0.26,0.5311111111111111,1,0,0,0.5489138999255374,target,001,part1,2018_Dec_24_1908,fitts,60.0361177378626,
300,15,100,4,32,432,2,-0.24125,0.5666666666666667,1,0,0,0.6476754999021068,target,001,part1,2018_Dec_24_1908,fitts,60.0361177378626,
300,30,400,4,33,433,66,0.15625,0.14666666666666667,1,0,0,0.5975100999930874,target,001,part1,2018_Dec_24_1908,fitts,60.0361177378626,
200,15,500,4,34,434,81,0.2125,0.38222222222222224,1,0,0,0.7815273000160232,target,001,part1,2018_Dec_24_1908,fitts,60.0361177378626,
400,75,100,4,35,435,19,-0.30375,0.5444444444444444,1,0,0,0.5158324999501929,target,001,part1,2018_Dec_24_1908,fitts,60.0361177378626,
100,75,500,4,36,436,96,-0.21,-0.38,1,0,0,1.0312967000063509,target,001,part1,2018_Dec_24_1908,fitts,60.0361177378626,
400,45,200,4,37,437,31,-0.235,0.3488888888888889,1,0,0,0.5312208000104874,target,001,part1,2018_Dec_24_1908,fitts,60.0361177378626,
200,45,100,4,38,438,9,-0.2875,0.49777777777777776,1,0,0,0.6655413000844419,target,001,part1,2018_Dec_24_1908,fitts,60.0361177378626,
100,30,100,4,39,439,4,-0.2825,0.5422222222222223,1,0,0,1.030877499957569,target,001,part1,2018_Dec_24_1908,fitts,60.0361177378626,
100,30,500,4,40,440,84,0.165,0.11333333333333333,1,0,0,0.8471930000232533,target,001,part1,2018_Dec_24_1908,fitts,60.0361177378626,
400,45,300,4,41,441,51,-0.12125,0.20222222222222222,1,0,0,0.48256839998066425,target,001,part1,2018_Dec_24_1908,fitts,60.0361177378626,
100,30,200,4,42,442,24,-0.165,0.4311111111111111,1,0,0,0.7153343000682071,target,001,part1,2018_Dec_24_1908,fitts,60.0361177378626,
400,15,500,4,43,443,83,0.2125,0.43555555555555553,1,0,0,0.7147380999522284,target,001,part1,2018_Dec_24_1908,fitts,60.0361177378626,
200,60,400,4,44,444,73,-0.08375,-0.08888888888888889,1,0,0,0.6160206999629736,target,001,part1,2018_Dec_24_1908,fitts,60.0361177378626,
200,75,300,4,45,445,57,-0.25125,0.0,1,0,0,0.8818577999481931,target,001,part1,2018_Dec_24_1908,fitts,60.0361177378626,
300,45,100,4,46,446,10,-0.2825,0.4777777777777778,1,0,0,0.5987225000280887,target,001,part1,2018_Dec_24_1908,fitts,60.0361177378626,
300,15,400,4,47,447,62,0.13875,0.42,1,0,0,0.7980601999443024,target,001,part1,2018_Dec_24_1908,fitts,60.0361177378626,
300,45,300,4,48,448,50,-0.14,0.2311111111111111,1,0,0,0.8809878999600187,target,001,part1,2018_Dec_24_1908,fitts,60.0361177378626,
400,45,500,4,49,449,91,0.11625,-0.17777777777777778,1,0,0,0.7649288000538945,target,001,part1,2018_Dec_24_1908,fitts,60.0361177378626,
300,15,200,4,50,450,22,-0.16375,0.5933333333333334,1,0,0,0.6487131000030786,target,001,part1,2018_Dec_24_1908,fitts,60.0361177378626,
200,60,500,4,51,451,93,-0.07375,-0.24222222222222223,1,0,0,0.731865799985826,target,001,part1,2018_Dec_24_1908,fitts,60.0361177378626,
200,30,400,4,52,452,65,0.095,0.24888888888888888,1,0,0,0.6652757000410929,target,001,part1,2018_Dec_24_1908,fitts,60.0361177378626,
300,60,200,4,53,453,34,-0.2125,0.29777777777777775,1,0,0,0.6163161000004038,target,001,part1,2018_Dec_24_1908,fitts,60.0361177378626,
200,60,300,4,54,454,53,-0.20625,0.06,1,0,0,0.7482132000150159,target,001,part1,2018_Dec_24_1908,fitts,60.0361177378626,
400,30,200,4,55,455,27,-0.10375,0.3688888888888889,1,0,0,0.498875500052236,target,001,part1,2018_Dec_24_1908,fitts,60.0361177378626,
100,45,500,4,56,456,88,0.07875,-0.11333333333333333,1,0,0,0.9310559999430552,target,001,part1,2018_Dec_24_1908,fitts,60.0361177378626,
300,75,200,4,57,457,38,-0.30875,0.2822222222222222,1,0,0,0.7321000000229105,target,001,part1,2018_Dec_24_1908,fitts,60.0361177378626,
100,30,300,4,58,458,44,-0.065,0.3488888888888889,1,0,0,1.2310462000314146,target,001,part1,2018_Dec_24_1908,fitts,60.0361177378626,
200,30,500,4,59,459,85,0.1875,0.1111111111111111,1,0,0,1.08149280003272,target,001,part1,2018_Dec_24_1908,fitts,60.0361177378626,
100,15,100,4,60,460,0,-0.255,0.6066666666666667,1,0,0,0.6485109999775887,target,001,part1,2018_Dec_24_1908,fitts,60.0361177378626,
200,45,500,4,61,461,89,0.0775,-0.13555555555555557,1,0,0,0.6818308000219986,target,001,part1,2018_Dec_24_1908,fitts,60.0361177378626,
200,75,200,4,62,462,37,-0.29875,0.26,1,0,0,0.6318186999997124,target,001,part1,2018_Dec_24_1908,fitts,60.0361177378626,
400,75,200,4,63,463,39,-0.32875,0.31333333333333335,1,0,0,0.49930999998468906,target,001,part1,2018_Dec_24_1908,fitts,60.0361177378626,
300,30,500,4,64,464,86,0.19125,0.12,1,0,0,0.8648427000734955,target,001,part1,2018_Dec_24_1908,fitts,60.0361177378626,
400,30,300,4,65,465,47,-0.0325,0.4177777777777778,1,0,0,0.5322606000117958,target,001,part1,2018_Dec_24_1908,fitts,60.0361177378626,
400,30,500,4,66,466,87,0.0675,0.17333333333333334,1,0,0,0.7147294000023976,target,001,part1,2018_Dec_24_1908,fitts,60.0361177378626,
300,75,500,4,67,467,98,-0.23625,-0.38222222222222224,1,0,0,0.7982697999104857,target,001,part1,2018_Dec_24_1908,fitts,60.0361177378626,
300,75,300,4,68,468,58,-0.30125,0.03333333333333333,1,0,0,0.5315430999035016,target,001,part1,2018_Dec_24_1908,fitts,60.0361177378626,
100,30,400,4,69,469,64,0.0625,0.22,1,0,0,1.0146643000189215,target,001,part1,2018_Dec_24_1908,fitts,60.0361177378626,
300,30,100,4,70,470,6,-0.27625,0.5244444444444445,1,0,0,0.5154802999459207,target,001,part1,2018_Dec_24_1908,fitts,60.0361177378626,
300,45,500,4,71,471,90,0.06125,-0.06222222222222222,1,0,0,0.615427799988538,target,001,part1,2018_Dec_24_1908,fitts,60.0361177378626,
400,60,500,4,72,472,95,-0.0775,-0.25555555555555554,1,0,0,1.2310623000375926,target,001,part1,2018_Dec_24_1908,fitts,60.0361177378626,
400,60,200,4,73,473,35,-0.29125,0.3,1,0,0,0.4815777000039816,target,001,part1,2018_Dec_24_1908,fitts,60.0361177378626,
300,60,100,4,74,474,14,-0.2975,0.4666666666666667,1,0,0,0.5318796000210568,target,001,part1,2018_Dec_24_1908,fitts,60.0361177378626,
200,60,100,4,75,475,13,-0.255,0.4222222222222222,1,0,0,0.5490749999880791,target,001,part1,2018_Dec_24_1908,fitts,60.0361177378626,
100,60,300,4,76,476,52,-0.18,0.08444444444444445,1,0,0,0.8480484000174329,target,001,part1,2018_Dec_24_1908,fitts,60.0361177378626,
100,75,100,4,77,477,16,-0.33875,0.4666666666666667,1,0,0,0.9814888000255451,target,001,part1,2018_Dec_24_1908,fitts,60.0361177378626,
400,75,500,4,78,478,99,-0.2025,-0.3333333333333333,1,0,0,0.6818565001012757,target,001,part1,2018_Dec_24_1908,fitts,60.0361177378626,
200,75,500,4,79,479,97,-0.18875,-0.44,1,0,0,0.9149538000347093,target,001,part1,2018_Dec_24_1908,fitts,60.0361177378626,
200,75,400,4,80,480,77,-0.23,-0.13111111111111112,1,0,0,0.9647155000129715,target,001,part1,2018_Dec_24_1908,fitts,60.0361177378626,
400,45,400,4,81,481,71,-0.02625,0.1111111111111111,1,0,0,0.6984585999744013,target,001,part1,2018_Dec_24_1908,fitts,60.0361177378626,
100,15,500,4,82,482,80,0.23125,0.37777777777777777,1,0,0,1.2643083999864757,target,001,part1,2018_Dec_24_1908,fitts,60.0361177378626,
400,75,400,4,83,483,79,-0.2275,-0.16444444444444445,1,0,0,0.715079199988395,target,001,part1,2018_Dec_24_1908,fitts,60.0361177378626,
400,45,100,4,84,484,11,-0.2425,0.4888888888888889,1,0,0,1.480744499946013,target,001,part1,2018_Dec_24_1908,fitts,60.0361177378626,
300,60,400,4,85,485,74,-0.09,-0.08,1,0,0,0.5668853999814019,target,001,part1,2018_Dec_24_1908,fitts,60.0361177378626,
200,15,400,4,86,486,61,0.14875,0.4777777777777778,1,0,0,0.6815800000913441,target,001,part1,2018_Dec_24_1908,fitts,60.0361177378626,
300,15,300,4,87,487,42,0.035,0.5288888888888889,1,0,0,0.8820621999911964,target,001,part1,2018_Dec_24_1908,fitts,60.0361177378626,
300,45,400,4,88,488,70,0.00875,0.017777777777777778,1,0,0,0.5995238999603316,target,001,part1,2018_Dec_24_1908,fitts,60.0361177378626,
400,15,400,4,89,489,63,0.145,0.4688888888888889,1,0,0,0.7815124000189826,target,001,part1,2018_Dec_24_1908,fitts,60.0361177378626,
400,60,400,4,90,490,75,-0.09875,-0.008888888888888889,1,0,0,0.6149683999828994,target,001,part1,2018_Dec_24_1908,fitts,60.0361177378626,
300,15,500,4,91,491,82,0.22125,0.4577777777777778,1,0,0,0.6644957999233156,target,001,part1,2018_Dec_24_1908,fitts,60.0361177378626,
200,30,200,4,92,492,25,-0.16875,0.4488888888888889,1,0,0,0.6652097000041977,target,001,part1,2018_Dec_24_1908,fitts,60.0361177378626,
200,30,300,4,93,493,45,-0.07,0.35555555555555557,1,0,0,0.8646282999543473,target,001,part1,2018_Dec_24_1908,fitts,60.0361177378626,
200,60,200,4,94,494,33,-0.23,0.28444444444444444,1,0,0,0.7315351999131963,target,001,part1,2018_Dec_24_1908,fitts,60.0361177378626,
100,15,300,4,95,495,40,-0.0025,0.49333333333333335,1,0,0,0.8315668000141159,target,001,part1,2018_Dec_24_1908,fitts,60.0361177378626,
300,75,100,4,96,496,18,-0.35375,0.5222222222222223,1,0,0,0.6486073000123724,target,001,part1,2018_Dec_24_1908,fitts,60.0361177378626,
300,75,400,4,97,497,78,-0.2275,-0.11777777777777777,1,0,0,0.7816779999993742,target,001,part1,2018_Dec_24_1908,fitts,60.0361177378626,
200,15,300,4,98,498,41,-0.02625,0.5266666666666666,1,0,0,0.7652972000651062,target,001,part1,2018_Dec_24_1908,fitts,60.0361177378626,
200,45,200,4,99,499,29,-0.2125,0.3488888888888889,1,0,0,0.5486047000158578,target,001,part1,2018_Dec_24_1908,fitts,60.0361177378626,
