size,direction,distance,trials.thisRepN,trials.thisTrialN,trials.thisN,trials.thisIndex,mouse_target.x,mouse_target.y,mouse_target.leftButton,mouse_target.midButton,mouse_target.rightButton,mouse_target.time,mouse_target.clicked_name,session,participant,date,expName,frameRate,
100,45,500,0,0,0,88,0.08625,-0.13555555555555557,1,0,0,1.9982750001363456,target,001,part4,2019_Jan_05_1600,fitts,60.14086189311004,
100,75,100,0,1,1,16,-0.3475,0.4111111111111111,1,0,0,0.6152015998959541,target,001,part4,2019_Jan_05_1600,fitts,60.14086189311004,
100,30,500,0,2,2,84,0.1625,0.08666666666666667,1,0,0,0.7164789999369532,target,001,part4,2019_Jan_05_1600,fitts,60.14086189311004,
300,30,300,0,3,3,46,-0.0375,0.3622222222222222,1,0,0,0.5484721998218447,target,001,part4,2019_Jan_05_1600,fitts,60.14086189311004,
300,30,400,0,4,4,66,0.065,0.17555555555555555,1,0,0,0.6318465999793261,target,001,part4,2019_Jan_05_1600,fitts,60.14086189311004,
100,60,300,0,5,5,52,-0.1775,0.09111111111111111,1,0,0,1.0812537998426706,target,001,part4,2019_Jan_05_1600,fitts,60.14086189311004,
300,60,500,0,6,6,94,-0.09125,-0.28,1,0,0,0.632353900000453,target,001,part4,2019_Jan_05_1600,fitts,60.14086189311004,
200,30,300,0,7,7,45,-0.03,0.29777777777777775,1,0,0,0.631622799905017,target,001,part4,2019_Jan_05_1600,fitts,60.14086189311004,
200,15,300,0,8,8,41,-0.055,0.49333333333333335,1,0,0,0.6989879000466317,target,001,part4,2019_Jan_05_1600,fitts,60.14086189311004,
100,30,300,0,9,9,44,-0.0325,0.31333333333333335,1,0,0,0.6816338999196887,target,001,part4,2019_Jan_05_1600,fitts,60.14086189311004,
300,15,400,0,10,10,62,0.08,0.3844444444444444,1,0,0,0.5817706000525504,target,001,part4,2019_Jan_05_1600,fitts,60.14086189311004,
300,45,200,0,11,11,30,-0.18,0.33555555555555555,1,0,0,0.6318127999547869,target,001,part4,2019_Jan_05_1600,fitts,60.14086189311004,
400,60,200,0,12,12,35,-0.23125,0.26666666666666666,1,0,0,0.4655185001902282,target,001,part4,2019_Jan_05_1600,fitts,60.14086189311004,
300,75,100,0,13,13,18,-0.33375,0.44,1,0,0,0.6987419000361115,target,001,part4,2019_Jan_05_1600,fitts,60.14086189311004,
200,30,200,0,14,14,25,-0.175,0.4688888888888889,1,0,0,1.3479114999063313,target,001,part4,2019_Jan_05_1600,fitts,60.14086189311004,
200,45,400,0,15,15,69,-0.065,0.06888888888888889,1,0,0,0.9969585000071675,target,001,part4,2019_Jan_05_1600,fitts,60.14086189311004,
100,60,500,0,16,16,92,-0.0875,-0.28,1,0,0,0.8455740998033434,target,001,part4,2019_Jan_05_1600,fitts,60.14086189311004,
200,45,300,0,17,17,49,-0.1275,0.2111111111111111,1,0,0,0.8482174000237137,target,001,part4,2019_Jan_05_1600,fitts,60.14086189311004,
100,75,400,0,18,18,76,-0.2575,-0.16666666666666666,1,0,0,0.9314297998789698,target,001,part4,2019_Jan_05_1600,fitts,60.14086189311004,
200,60,400,0,19,19,73,-0.1425,-0.06888888888888889,1,0,0,0.7481949999928474,target,001,part4,2019_Jan_05_1600,fitts,60.14086189311004,
400,45,100,0,20,20,11,-0.31,0.54,1,0,0,0.3995262000244111,target,001,part4,2019_Jan_05_1600,fitts,60.14086189311004,
400,15,200,0,21,21,23,-0.29875,0.6266666666666667,1,0,0,0.3818349000066519,target,001,part4,2019_Jan_05_1600,fitts,60.14086189311004,
400,15,300,0,22,22,43,-0.03125,0.5133333333333333,1,0,0,0.4318011000286788,target,001,part4,2019_Jan_05_1600,fitts,60.14086189311004,
200,45,100,0,23,23,9,-0.25875,0.5111111111111111,1,0,0,0.5981829001102597,target,001,part4,2019_Jan_05_1600,fitts,60.14086189311004,
400,75,300,0,24,24,59,-0.2825,0.05333333333333334,1,0,0,0.7482813999522477,target,001,part4,2019_Jan_05_1600,fitts,60.14086189311004,
400,30,100,0,25,25,7,-0.3,0.5288888888888889,1,0,0,0.3987030000425875,target,001,part4,2019_Jan_05_1600,fitts,60.14086189311004,
100,75,500,0,26,26,96,-0.19625,-0.43777777777777777,1,0,0,1.0802549000363797,target,001,part4,2019_Jan_05_1600,fitts,60.14086189311004,
100,15,500,0,27,27,80,0.2025,0.35333333333333333,1,0,0,1.0644342000596225,target,001,part4,2019_Jan_05_1600,fitts,60.14086189311004,
200,15,500,0,28,28,81,0.24,0.32666666666666666,1,0,0,0.864801499992609,target,001,part4,2019_Jan_05_1600,fitts,60.14086189311004,
100,45,200,0,29,29,28,-0.195,0.3933333333333333,1,0,0,1.5799964999314398,target,001,part4,2019_Jan_05_1600,fitts,60.14086189311004,
200,60,200,0,30,30,33,-0.28,0.2688888888888889,1,0,0,0.6818666001781821,target,001,part4,2019_Jan_05_1600,fitts,60.14086189311004,
100,60,400,0,31,31,72,-0.14875,-0.08888888888888889,1,0,0,0.931743900058791,target,001,part4,2019_Jan_05_1600,fitts,60.14086189311004,
400,45,500,0,32,32,91,-0.00625,-0.015555555555555555,1,0,0,0.5654324002098292,target,001,part4,2019_Jan_05_1600,fitts,60.14086189311004,
300,60,300,0,33,33,54,-0.23,0.08888888888888889,1,0,0,0.46633520000614226,target,001,part4,2019_Jan_05_1600,fitts,60.14086189311004,
400,75,200,0,34,34,39,-0.33875,0.35333333333333333,1,0,0,0.7479344001039863,target,001,part4,2019_Jan_05_1600,fitts,60.14086189311004,
300,60,400,0,35,35,74,-0.14875,0.006666666666666667,1,0,0,0.8817845000885427,target,001,part4,2019_Jan_05_1600,fitts,60.14086189311004,
100,45,400,0,36,36,68,-0.0175,0.04888888888888889,1,0,0,2.411961799953133,target,001,part4,2019_Jan_05_1600,fitts,60.14086189311004,
300,75,300,0,37,37,58,-0.29375,-0.02,1,0,0,2.0127977998927236,target,001,part4,2019_Jan_05_1600,fitts,60.14086189311004,
300,15,200,0,38,38,22,-0.13875,0.5377777777777778,1,0,0,0.5150389999616891,target,001,part4,2019_Jan_05_1600,fitts,60.14086189311004,
400,15,100,0,39,39,3,-0.215,0.6133333333333333,1,0,0,0.38209589989855886,target,001,part4,2019_Jan_05_1600,fitts,60.14086189311004,
400,60,300,0,40,40,55,-0.175,0.07777777777777778,1,0,0,0.648306000046432,target,001,part4,2019_Jan_05_1600,fitts,60.14086189311004,
100,15,200,0,41,41,20,-0.12875,0.56,1,0,0,0.7655137002002448,target,001,part4,2019_Jan_05_1600,fitts,60.14086189311004,
200,75,100,0,42,42,17,-0.32,0.4222222222222222,1,0,0,0.5155024998821318,target,001,part4,2019_Jan_05_1600,fitts,60.14086189311004,
100,75,300,0,43,43,56,-0.295,0.022222222222222223,1,0,0,2.279435599921271,target,001,part4,2019_Jan_05_1600,fitts,60.14086189311004,
100,60,200,0,44,44,32,-0.2625,0.27555555555555555,1,0,0,1.1978670000098646,target,001,part4,2019_Jan_05_1600,fitts,60.14086189311004,
300,15,500,0,45,45,82,0.225,0.3488888888888889,1,0,0,0.7314735997933894,target,001,part4,2019_Jan_05_1600,fitts,60.14086189311004,
300,45,300,0,46,46,50,-0.08625,0.14222222222222222,1,0,0,0.6816136999987066,target,001,part4,2019_Jan_05_1600,fitts,60.14086189311004,
400,60,100,0,47,47,15,-0.42625,0.54,1,0,0,0.4654130998533219,target,001,part4,2019_Jan_05_1600,fitts,60.14086189311004,
100,75,200,0,48,48,36,-0.32,0.24444444444444444,1,0,0,0.7988374000415206,target,001,part4,2019_Jan_05_1600,fitts,60.14086189311004,
100,60,100,0,49,49,12,-0.32375,0.4533333333333333,1,0,0,0.5822216998785734,target,001,part4,2019_Jan_05_1600,fitts,60.14086189311004,
100,15,100,0,50,50,0,-0.26125,0.5733333333333334,1,0,0,1.081268899841234,target,001,part4,2019_Jan_05_1600,fitts,60.14086189311004,
300,75,200,0,51,51,38,-0.305,0.2511111111111111,1,0,0,0.49945879983715713,target,001,part4,2019_Jan_05_1600,fitts,60.14086189311004,
400,30,400,0,52,52,67,0.1,0.10444444444444445,1,0,0,0.5487590001430362,target,001,part4,2019_Jan_05_1600,fitts,60.14086189311004,
200,45,200,0,53,53,29,-0.195,0.33555555555555555,1,0,0,0.8333600999321789,target,001,part4,2019_Jan_05_1600,fitts,60.14086189311004,
200,60,500,0,54,54,93,-0.10875,-0.24222222222222223,1,0,0,0.7993713999167085,target,001,part4,2019_Jan_05_1600,fitts,60.14086189311004,
300,30,100,0,55,55,6,-0.2525,0.5088888888888888,1,0,0,0.6818322001490742,target,001,part4,2019_Jan_05_1600,fitts,60.14086189311004,
200,60,100,0,56,56,13,-0.32875,0.45555555555555555,1,0,0,0.44898319989442825,target,001,part4,2019_Jan_05_1600,fitts,60.14086189311004,
400,60,400,0,57,57,75,-0.10375,-0.12666666666666668,1,0,0,0.514935800107196,target,001,part4,2019_Jan_05_1600,fitts,60.14086189311004,
100,30,200,0,58,58,24,-0.17125,0.42444444444444446,1,0,0,0.6807556999847293,target,001,part4,2019_Jan_05_1600,fitts,60.14086189311004,
200,15,200,0,59,59,21,-0.10125,0.5533333333333333,1,0,0,0.46521089994348586,target,001,part4,2019_Jan_05_1600,fitts,60.14086189311004,
300,75,400,0,60,60,78,-0.22875,-0.17555555555555555,1,0,0,0.681304199853912,target,001,part4,2019_Jan_05_1600,fitts,60.14086189311004,
200,30,400,0,61,61,65,0.05875,0.18888888888888888,1,0,0,0.7647285000421107,target,001,part4,2019_Jan_05_1600,fitts,60.14086189311004,
300,60,100,0,62,62,14,-0.34875,0.54,1,0,0,0.3818302000872791,target,001,part4,2019_Jan_05_1600,fitts,60.14086189311004,
100,15,300,0,63,63,40,-0.01875,0.4822222222222222,1,0,0,0.7149187999311835,target,001,part4,2019_Jan_05_1600,fitts,60.14086189311004,
300,30,200,0,64,64,26,-0.17875,0.45555555555555555,1,0,0,0.48312840005382895,target,001,part4,2019_Jan_05_1600,fitts,60.14086189311004,
400,30,300,0,65,65,47,-0.12125,0.41333333333333333,1,0,0,0.5151724999304861,target,001,part4,2019_Jan_05_1600,fitts,60.14086189311004,
300,15,100,0,66,66,2,-0.2775,0.6155555555555555,1,0,0,0.6817752001807094,target,001,part4,2019_Jan_05_1600,fitts,60.14086189311004,
300,45,500,0,67,67,90,0.08,-0.06,1,0,0,0.6166161999572068,target,001,part4,2019_Jan_05_1600,fitts,60.14086189311004,
300,15,300,0,68,68,42,-0.01125,0.5733333333333334,1,0,0,0.44825199991464615,target,001,part4,2019_Jan_05_1600,fitts,60.14086189311004,
300,60,200,0,69,69,34,-0.25,0.24444444444444444,1,0,0,0.6651320001110435,target,001,part4,2019_Jan_05_1600,fitts,60.14086189311004,
400,45,400,0,70,70,71,-0.09875,0.08888888888888889,1,0,0,0.731800900073722,target,001,part4,2019_Jan_05_1600,fitts,60.14086189311004,
100,30,400,0,71,71,64,0.03875,0.2088888888888889,1,0,0,1.064972799969837,target,001,part4,2019_Jan_05_1600,fitts,60.14086189311004,
400,15,500,0,72,72,83,0.20125,0.3244444444444444,1,0,0,0.5994645000901073,target,001,part4,2019_Jan_05_1600,fitts,60.14086189311004,
400,75,400,0,73,73,79,-0.2575,-0.11777777777777777,1,0,0,0.5981211001053452,target,001,part4,2019_Jan_05_1600,fitts,60.14086189311004,
400,15,400,0,74,74,63,0.135,0.36666666666666664,1,0,0,0.43186819995753467,target,001,part4,2019_Jan_05_1600,fitts,60.14086189311004,
200,75,200,0,75,75,37,-0.33875,0.22444444444444445,1,0,0,0.7319241999648511,target,001,part4,2019_Jan_05_1600,fitts,60.14086189311004,
300,30,500,0,76,76,86,0.1925,0.06,1,0,0,0.5321444999426603,target,001,part4,2019_Jan_05_1600,fitts,60.14086189311004,
400,45,300,0,77,77,51,-0.11625,0.16,1,0,0,0.4822486999910325,target,001,part4,2019_Jan_05_1600,fitts,60.14086189311004,
100,30,100,0,78,78,4,-0.2525,0.5288888888888889,1,0,0,0.49850689992308617,target,001,part4,2019_Jan_05_1600,fitts,60.14086189311004,
400,45,200,0,79,79,31,-0.1875,0.41333333333333333,1,0,0,0.41532899998128414,target,001,part4,2019_Jan_05_1600,fitts,60.14086189311004,
400,30,200,0,80,80,27,-0.2275,0.48444444444444446,1,0,0,0.3987417998723686,target,001,part4,2019_Jan_05_1600,fitts,60.14086189311004,
400,75,500,0,81,81,99,-0.275,-0.36,1,0,0,0.5486037000082433,target,001,part4,2019_Jan_05_1600,fitts,60.14086189311004,
300,75,500,0,82,82,98,-0.19875,-0.44,1,0,0,0.6485244000796229,target,001,part4,2019_Jan_05_1600,fitts,60.14086189311004,
200,75,500,0,83,83,97,-0.205,-0.4177777777777778,1,0,0,0.515728099970147,target,001,part4,2019_Jan_05_1600,fitts,60.14086189311004,
200,15,100,0,84,84,1,-0.24375,0.5822222222222222,1,0,0,0.6149854999966919,target,001,part4,2019_Jan_05_1600,fitts,60.14086189311004,
200,75,300,0,85,85,57,-0.27875,-0.02,1,0,0,0.481877300189808,target,001,part4,2019_Jan_05_1600,fitts,60.14086189311004,
400,60,500,0,86,86,95,-0.085,-0.31555555555555553,1,0,0,0.5496384999714792,target,001,part4,2019_Jan_05_1600,fitts,60.14086189311004,
200,75,400,0,87,87,77,-0.30375,-0.07555555555555556,1,0,0,0.48235210007987916,target,001,part4,2019_Jan_05_1600,fitts,60.14086189311004,
300,45,100,0,88,88,10,-0.2575,0.48,1,0,0,0.38196390005759895,target,001,part4,2019_Jan_05_1600,fitts,60.14086189311004,
100,45,100,0,89,89,8,-0.2425,0.4688888888888889,1,0,0,0.2821188000962138,target,001,part4,2019_Jan_05_1600,fitts,60.14086189311004,
300,45,400,0,90,90,70,-0.045,0.09777777777777778,1,0,0,1.9966486000921577,target,001,part4,2019_Jan_05_1600,fitts,60.14086189311004,
100,45,300,0,91,91,48,-0.08125,0.18888888888888888,1,0,0,1.0645582000724971,target,001,part4,2019_Jan_05_1600,fitts,60.14086189311004,
200,30,500,0,92,92,85,0.12625,0.14222222222222222,1,0,0,0.8319325000047684,target,001,part4,2019_Jan_05_1600,fitts,60.14086189311004,
200,15,400,0,93,93,61,0.13625,0.43555555555555553,1,0,0,0.7483558999374509,target,001,part4,2019_Jan_05_1600,fitts,60.14086189311004,
400,30,500,0,94,94,87,0.1575,0.12222222222222222,1,0,0,0.49873120011761785,target,001,part4,2019_Jan_05_1600,fitts,60.14086189311004,
200,60,300,0,95,95,53,-0.14625,0.12666666666666668,1,0,0,0.8151693001855165,target,001,part4,2019_Jan_05_1600,fitts,60.14086189311004,
400,75,100,0,96,96,19,-0.41125,0.4288888888888889,1,0,0,0.4653648000676185,target,001,part4,2019_Jan_05_1600,fitts,60.14086189311004,
100,15,400,0,97,97,60,0.1225,0.43333333333333335,1,0,0,1.0978593998588622,target,001,part4,2019_Jan_05_1600,fitts,60.14086189311004,
200,45,500,0,98,98,89,0.0425,-0.09111111111111111,1,0,0,0.6984862999524921,target,001,part4,2019_Jan_05_1600,fitts,60.14086189311004,
200,30,100,0,99,99,5,-0.27875,0.6088888888888889,1,0,0,0.6655580999795347,target,001,part4,2019_Jan_05_1600,fitts,60.14086189311004,
400,45,500,1,0,100,91,0.02,-0.1288888888888889,1,0,0,0.6317773000337183,target,001,part4,2019_Jan_05_1600,fitts,60.14086189311004,
400,45,100,1,1,101,11,-0.24625,0.5822222222222222,1,0,0,1.04813740006648,target,001,part4,2019_Jan_05_1600,fitts,60.14086189311004,
400,75,500,1,2,102,99,-0.22375,-0.33555555555555555,1,0,0,0.7317128998693079,target,001,part4,2019_Jan_05_1600,fitts,60.14086189311004,
400,30,300,1,3,103,47,-0.04625,0.2777777777777778,1,0,0,0.6318300999701023,target,001,part4,2019_Jan_05_1600,fitts,60.14086189311004,
400,15,500,1,4,104,83,0.12375,0.4066666666666667,1,0,0,0.7661339999176562,target,001,part4,2019_Jan_05_1600,fitts,60.14086189311004,
300,15,200,1,5,105,22,-0.135,0.54,1,0,0,1.0158720999024808,target,001,part4,2019_Jan_05_1600,fitts,60.14086189311004,
100,75,300,1,6,106,56,-0.29125,0.044444444444444446,1,0,0,0.9147812998853624,target,001,part4,2019_Jan_05_1600,fitts,60.14086189311004,
100,30,500,1,7,107,84,0.195,0.09555555555555556,1,0,0,0.8649873998947442,target,001,part4,2019_Jan_05_1600,fitts,60.14086189311004,
300,75,200,1,8,108,38,-0.305,0.3022222222222222,1,0,0,0.46519259992055595,target,001,part4,2019_Jan_05_1600,fitts,60.14086189311004,
300,60,500,1,9,109,94,-0.06875,-0.26222222222222225,1,0,0,0.6645143998321146,target,001,part4,2019_Jan_05_1600,fitts,60.14086189311004,
400,15,200,1,10,110,23,-0.25,0.5466666666666666,1,0,0,0.515465599950403,target,001,part4,2019_Jan_05_1600,fitts,60.14086189311004,
300,15,300,1,11,111,42,-0.05625,0.45111111111111113,1,0,0,0.43085019988939166,target,001,part4,2019_Jan_05_1600,fitts,60.14086189311004,
300,45,400,1,12,112,70,-0.035,0.16,1,0,0,0.531554999994114,target,001,part4,2019_Jan_05_1600,fitts,60.14086189311004,
400,75,200,1,13,113,39,-0.28875,0.4177777777777778,1,0,0,0.43224789993837476,target,001,part4,2019_Jan_05_1600,fitts,60.14086189311004,
100,75,400,1,14,114,76,-0.21125,-0.16666666666666666,1,0,0,0.7982854000292718,target,001,part4,2019_Jan_05_1600,fitts,60.14086189311004,
200,75,300,1,15,115,57,-0.30875,0.051111111111111114,1,0,0,0.6993495998904109,target,001,part4,2019_Jan_05_1600,fitts,60.14086189311004,
100,15,100,1,16,116,0,-0.235,0.62,1,0,0,0.7812002999708056,target,001,part4,2019_Jan_05_1600,fitts,60.14086189311004,
400,15,400,1,17,117,63,0.01875,0.4955555555555556,1,0,0,0.7487373000476509,target,001,part4,2019_Jan_05_1600,fitts,60.14086189311004,
300,60,200,1,18,118,34,-0.28625,0.2511111111111111,1,0,0,2.128988299984485,target,001,part4,2019_Jan_05_1600,fitts,60.14086189311004,
100,30,300,1,19,119,44,-0.07125,0.34,1,0,0,1.7306659000460058,target,001,part4,2019_Jan_05_1600,fitts,60.14086189311004,
400,15,100,1,20,120,3,-0.24375,0.5644444444444444,1,0,0,0.43202360020950437,target,001,part4,2019_Jan_05_1600,fitts,60.14086189311004,
400,60,100,1,21,121,15,-0.26125,0.5266666666666666,1,0,0,0.3352113999426365,target,001,part4,2019_Jan_05_1600,fitts,60.14086189311004,
300,15,500,1,22,122,82,0.17875,0.35555555555555557,1,0,0,0.8979342000093311,target,001,part4,2019_Jan_05_1600,fitts,60.14086189311004,
100,75,100,1,23,123,16,-0.35875,0.4222222222222222,1,0,0,0.5465907000470906,target,001,part4,2019_Jan_05_1600,fitts,60.14086189311004,
100,75,200,1,24,124,36,-0.31625,0.23555555555555555,1,0,0,0.5654814001172781,target,001,part4,2019_Jan_05_1600,fitts,60.14086189311004,
400,75,300,1,25,125,59,-0.29875,0.04888888888888889,1,0,0,0.5151696000248194,target,001,part4,2019_Jan_05_1600,fitts,60.14086189311004,
100,45,200,1,26,126,28,-0.1925,0.35555555555555557,1,0,0,0.7652102999854833,target,001,part4,2019_Jan_05_1600,fitts,60.14086189311004,
400,60,400,1,27,127,75,-0.17375,0.04666666666666667,1,0,0,0.5653562999796122,target,001,part4,2019_Jan_05_1600,fitts,60.14086189311004,
200,45,200,1,28,128,29,-0.16875,0.37555555555555553,1,0,0,1.5140444999560714,target,001,part4,2019_Jan_05_1600,fitts,60.14086189311004,
200,60,200,1,29,129,33,-0.2475,0.26666666666666666,1,0,0,0.7323141999077052,target,001,part4,2019_Jan_05_1600,fitts,60.14086189311004,
300,60,100,1,30,130,14,-0.305,0.5,1,0,0,0.3993680998682976,target,001,part4,2019_Jan_05_1600,fitts,60.14086189311004,
400,30,100,1,31,131,7,-0.2575,0.54,1,0,0,0.3822123999707401,target,001,part4,2019_Jan_05_1600,fitts,60.14086189311004,
400,15,300,1,32,132,43,-0.10375,0.5066666666666667,1,0,0,0.6150915999896824,target,001,part4,2019_Jan_05_1600,fitts,60.14086189311004,
200,60,100,1,33,133,13,-0.32125,0.47333333333333333,1,0,0,0.5650316001847386,target,001,part4,2019_Jan_05_1600,fitts,60.14086189311004,
300,30,200,1,34,134,26,-0.17,0.46444444444444444,1,0,0,0.450017899973318,target,001,part4,2019_Jan_05_1600,fitts,60.14086189311004,
300,75,400,1,35,135,78,-0.3,-0.11555555555555555,1,0,0,0.6484936999622732,target,001,part4,2019_Jan_05_1600,fitts,60.14086189311004,
100,30,200,1,36,136,24,-0.14875,0.44222222222222224,1,0,0,2.2791373999789357,target,001,part4,2019_Jan_05_1600,fitts,60.14086189311004,
200,75,200,1,37,137,37,-0.2975,0.19333333333333333,1,0,0,0.664517599856481,target,001,part4,2019_Jan_05_1600,fitts,60.14086189311004,
400,45,300,1,38,138,51,-0.1275,0.2288888888888889,1,0,0,0.9314043000340462,target,001,part4,2019_Jan_05_1600,fitts,60.14086189311004,
100,45,500,1,39,139,88,0.055,-0.11777777777777777,1,0,0,1.1141012001316994,target,001,part4,2019_Jan_05_1600,fitts,60.14086189311004,
200,45,300,1,40,140,49,-0.125,0.21777777777777776,1,0,0,0.6649732999503613,target,001,part4,2019_Jan_05_1600,fitts,60.14086189311004,
100,60,400,1,41,141,72,-0.12875,-0.08888888888888889,1,0,0,0.8319549998268485,target,001,part4,2019_Jan_05_1600,fitts,60.14086189311004,
300,30,400,1,42,142,66,0.10375,0.2111111111111111,1,0,0,1.150476099923253,target,001,part4,2019_Jan_05_1600,fitts,60.14086189311004,
300,45,300,1,43,143,50,-0.095,0.15777777777777777,1,0,0,0.6321719998959452,target,001,part4,2019_Jan_05_1600,fitts,60.14086189311004,
400,45,200,1,44,144,31,-0.16375,0.3711111111111111,1,0,0,0.38219340005889535,target,001,part4,2019_Jan_05_1600,fitts,60.14086189311004,
400,60,200,1,45,145,35,-0.275,0.3377777777777778,1,0,0,0.4654451999813318,target,001,part4,2019_Jan_05_1600,fitts,60.14086189311004,
100,15,500,1,46,146,80,0.22875,0.4022222222222222,1,0,0,0.9979439999442548,target,001,part4,2019_Jan_05_1600,fitts,60.14086189311004,
300,45,100,1,47,147,10,-0.31625,0.49777777777777776,1,0,0,0.5816107999999076,target,001,part4,2019_Jan_05_1600,fitts,60.14086189311004,
200,75,100,1,48,148,17,-0.3725,0.4666666666666667,1,0,0,0.5824932001996785,target,001,part4,2019_Jan_05_1600,fitts,60.14086189311004,
400,45,400,1,49,149,71,-0.04125,0.06888888888888889,1,0,0,0.5958420000970364,target,001,part4,2019_Jan_05_1600,fitts,60.14086189311004,
100,60,100,1,50,150,12,-0.3,0.4866666666666667,1,0,0,1.4143642000854015,target,001,part4,2019_Jan_05_1600,fitts,60.14086189311004,
200,30,500,1,51,151,85,0.17625,0.12666666666666668,1,0,0,0.6985743998084217,target,001,part4,2019_Jan_05_1600,fitts,60.14086189311004,
100,15,400,1,52,152,60,0.1225,0.4111111111111111,1,0,0,0.7315009001176804,target,001,part4,2019_Jan_05_1600,fitts,60.14086189311004,
300,60,300,1,53,153,54,-0.21375,0.10888888888888888,1,0,0,2.2958966000005603,target,001,part4,2019_Jan_05_1600,fitts,60.14086189311004,
300,15,400,1,54,154,62,0.15125,0.4088888888888889,1,0,0,0.7634526998735964,target,001,part4,2019_Jan_05_1600,fitts,60.14086189311004,
200,15,300,1,55,155,41,0.0325,0.46,1,0,0,0.9313076001126319,target,001,part4,2019_Jan_05_1600,fitts,60.14086189311004,
200,75,500,1,56,156,97,-0.2125,-0.4,1,0,0,0.931505500106141,target,001,part4,2019_Jan_05_1600,fitts,60.14086189311004,
100,45,100,1,57,157,8,-0.3375,0.52,1,0,0,0.7979721000883728,target,001,part4,2019_Jan_05_1600,fitts,60.14086189311004,
200,60,300,1,58,158,53,-0.1625,0.05333333333333334,1,0,0,0.7650686998385936,target,001,part4,2019_Jan_05_1600,fitts,60.14086189311004,
100,30,400,1,59,159,64,0.05125,0.22,1,0,0,0.6811973999720067,target,001,part4,2019_Jan_05_1600,fitts,60.14086189311004,
300,75,300,1,60,160,58,-0.2275,0.03111111111111111,1,0,0,0.6140709000173956,target,001,part4,2019_Jan_05_1600,fitts,60.14086189311004,
300,45,200,1,61,161,30,-0.15125,0.29555555555555557,1,0,0,0.7643923000432551,target,001,part4,2019_Jan_05_1600,fitts,60.14086189311004,
400,75,100,1,62,162,19,-0.35,0.4888888888888889,1,0,0,0.41537940013222396,target,001,part4,2019_Jan_05_1600,fitts,60.14086189311004,
100,60,200,1,63,163,32,-0.23625,0.29333333333333333,1,0,0,0.7646229001693428,target,001,part4,2019_Jan_05_1600,fitts,60.14086189311004,
300,75,100,1,64,164,18,-0.35875,0.4866666666666667,1,0,0,0.4319499998819083,target,001,part4,2019_Jan_05_1600,fitts,60.14086189311004,
200,45,500,1,65,165,89,0.08875,-0.10666666666666667,1,0,0,0.7317387000657618,target,001,part4,2019_Jan_05_1600,fitts,60.14086189311004,
100,60,500,1,66,166,92,-0.07625,-0.2777777777777778,1,0,0,1.9639061999041587,target,001,part4,2019_Jan_05_1600,fitts,60.14086189311004,
300,30,300,1,67,167,46,-0.0125,0.3333333333333333,1,0,0,0.5485894000157714,target,001,part4,2019_Jan_05_1600,fitts,60.14086189311004,
200,30,400,1,68,168,65,0.09,0.2088888888888889,1,0,0,0.7647965999785811,target,001,part4,2019_Jan_05_1600,fitts,60.14086189311004,
400,60,500,1,69,169,95,-0.0875,-0.31777777777777777,1,0,0,0.5980802001431584,target,001,part4,2019_Jan_05_1600,fitts,60.14086189311004,
300,30,500,1,70,170,86,0.1675,0.07555555555555556,1,0,0,0.5797900999896228,target,001,part4,2019_Jan_05_1600,fitts,60.14086189311004,
200,15,400,1,71,171,61,0.06875,0.4711111111111111,1,0,0,0.7484144000336528,target,001,part4,2019_Jan_05_1600,fitts,60.14086189311004,
400,30,500,1,72,172,87,0.0975,0.17555555555555555,1,0,0,0.6653614998795092,target,001,part4,2019_Jan_05_1600,fitts,60.14086189311004,
200,15,100,1,73,173,1,-0.21375,0.62,1,0,0,0.8483199998736382,target,001,part4,2019_Jan_05_1600,fitts,60.14086189311004,
200,45,100,1,74,174,9,-0.245,0.5,1,0,0,0.6814115999732167,target,001,part4,2019_Jan_05_1600,fitts,60.14086189311004,
200,60,400,1,75,175,73,-0.1275,-0.06888888888888889,1,0,0,0.648041500011459,target,001,part4,2019_Jan_05_1600,fitts,60.14086189311004,
200,75,400,1,76,176,77,-0.27,-0.13777777777777778,1,0,0,0.7309979000128806,target,001,part4,2019_Jan_05_1600,fitts,60.14086189311004,
100,30,100,1,77,177,4,-0.24125,0.56,1,0,0,1.0141603001393378,target,001,part4,2019_Jan_05_1600,fitts,60.14086189311004,
400,60,300,1,78,178,55,-0.19125,0.08,1,0,0,0.5489777000620961,target,001,part4,2019_Jan_05_1600,fitts,60.14086189311004,
200,45,400,1,79,179,69,0.05625,0.08888888888888889,1,0,0,0.5653991000726819,target,001,part4,2019_Jan_05_1600,fitts,60.14086189311004,
300,45,500,1,80,180,90,0.05375,-0.11777777777777777,1,0,0,1.0303493000101298,target,001,part4,2019_Jan_05_1600,fitts,60.14086189311004,
200,30,100,1,81,181,5,-0.2375,0.5333333333333333,1,0,0,0.43348809983581305,target,001,part4,2019_Jan_05_1600,fitts,60.14086189311004,
200,60,500,1,82,182,93,-0.04625,-0.2911111111111111,1,0,0,0.6820223000831902,target,001,part4,2019_Jan_05_1600,fitts,60.14086189311004,
400,30,200,1,83,183,27,-0.17625,0.38222222222222224,1,0,0,0.4490249000955373,target,001,part4,2019_Jan_05_1600,fitts,60.14086189311004,
100,45,400,1,84,184,68,-0.0175,0.05555555555555555,1,0,0,1.7466740000527352,target,001,part4,2019_Jan_05_1600,fitts,60.14086189311004,
300,30,100,1,85,185,6,-0.34375,0.6022222222222222,1,0,0,0.36593379988335073,target,001,part4,2019_Jan_05_1600,fitts,60.14086189311004,
300,75,500,1,86,186,98,-0.2,-0.3711111111111111,1,0,0,0.7658583000302315,target,001,part4,2019_Jan_05_1600,fitts,60.14086189311004,
400,30,400,1,87,187,67,0.0675,0.2822222222222222,1,0,0,0.5654821000061929,target,001,part4,2019_Jan_05_1600,fitts,60.14086189311004,
200,30,300,1,88,188,45,-0.04875,0.3422222222222222,1,0,0,0.5657693000975996,target,001,part4,2019_Jan_05_1600,fitts,60.14086189311004,
300,60,400,1,89,189,74,-0.14875,-0.06444444444444444,1,0,0,0.7980720000341535,target,001,part4,2019_Jan_05_1600,fitts,60.14086189311004,
200,15,200,1,90,190,21,-0.12125,0.5511111111111111,1,0,0,1.2979383000638336,target,001,part4,2019_Jan_05_1600,fitts,60.14086189311004,
100,60,300,1,91,191,52,-0.205,0.09777777777777778,1,0,0,1.3476662000175565,target,001,part4,2019_Jan_05_1600,fitts,60.14086189311004,
100,15,300,1,92,192,40,-0.00625,0.4911111111111111,1,0,0,1.4641859999392182,target,001,part4,2019_Jan_05_1600,fitts,60.14086189311004,
100,45,300,1,93,193,48,-0.12875,0.20666666666666667,1,0,0,1.89669209998101,target,001,part4,2019_Jan_05_1600,fitts,60.14086189311004,
300,15,100,1,94,194,2,-0.24375,0.6088888888888889,1,0,0,0.481787099968642,target,001,part4,2019_Jan_05_1600,fitts,60.14086189311004,
400,75,400,1,95,195,79,-0.2975,-0.10222222222222223,1,0,0,0.5988026999402791,target,001,part4,2019_Jan_05_1600,fitts,60.14086189311004,
200,15,500,1,96,196,81,0.21,0.4066666666666667,1,0,0,0.5986740000080317,target,001,part4,2019_Jan_05_1600,fitts,60.14086189311004,
100,15,200,1,97,197,20,-0.13125,0.52,1,0,0,0.814566700020805,target,001,part4,2019_Jan_05_1600,fitts,60.14086189311004,
100,75,500,1,98,198,96,-0.2125,-0.4088888888888889,1,0,0,1.0661774000618607,target,001,part4,2019_Jan_05_1600,fitts,60.14086189311004,
200,30,200,1,99,199,25,-0.18,0.43333333333333335,1,0,0,0.531888599973172,target,001,part4,2019_Jan_05_1600,fitts,60.14086189311004,
400,60,300,2,0,200,55,-0.18,0.09111111111111111,1,0,0,0.4322390998713672,target,001,part4,2019_Jan_05_1600,fitts,60.14086189311004,
200,30,300,2,1,201,45,-0.0825,0.35555555555555557,1,0,0,0.5982287998776883,target,001,part4,2019_Jan_05_1600,fitts,60.14086189311004,
100,75,100,2,2,202,16,-0.33625,0.48,1,0,0,0.49859119998291135,target,001,part4,2019_Jan_05_1600,fitts,60.14086189311004,
300,75,500,2,3,203,98,-0.26875,-0.41333333333333333,1,0,0,0.7317272999789566,target,001,part4,2019_Jan_05_1600,fitts,60.14086189311004,
300,60,100,2,4,204,14,-0.31875,0.5644444444444444,1,0,0,0.4325264000799507,target,001,part4,2019_Jan_05_1600,fitts,60.14086189311004,
200,60,200,2,5,205,33,-0.26625,0.3466666666666667,1,0,0,0.43222659989260137,target,001,part4,2019_Jan_05_1600,fitts,60.14086189311004,
400,45,100,2,6,206,11,-0.31,0.3933333333333333,1,0,0,0.4320896998979151,target,001,part4,2019_Jan_05_1600,fitts,60.14086189311004,
300,15,200,2,7,207,22,-0.10125,0.5822222222222222,1,0,0,0.6986336999107152,target,001,part4,2019_Jan_05_1600,fitts,60.14086189311004,
200,75,400,2,8,208,77,-0.24625,-0.1711111111111111,1,0,0,0.7313747000880539,target,001,part4,2019_Jan_05_1600,fitts,60.14086189311004,
300,15,400,2,9,209,62,0.04375,0.39555555555555555,1,0,0,0.586686700116843,target,001,part4,2019_Jan_05_1600,fitts,60.14086189311004,
100,15,100,2,10,210,0,-0.26125,0.5888888888888889,1,0,0,0.6819937999825925,target,001,part4,2019_Jan_05_1600,fitts,60.14086189311004,
100,75,300,2,11,211,56,-0.26,-0.0022222222222222222,1,0,0,0.7484189998358488,target,001,part4,2019_Jan_05_1600,fitts,60.14086189311004,
300,15,500,2,12,212,82,0.175,0.3333333333333333,1,0,0,0.8148835999891162,target,001,part4,2019_Jan_05_1600,fitts,60.14086189311004,
100,45,300,2,13,213,48,-0.1125,0.19777777777777777,1,0,0,0.6988635999150574,target,001,part4,2019_Jan_05_1600,fitts,60.14086189311004,
100,60,300,2,14,214,52,-0.1775,0.08444444444444445,1,0,0,0.7151307999156415,target,001,part4,2019_Jan_05_1600,fitts,60.14086189311004,
200,15,100,2,15,215,1,-0.25125,0.5622222222222222,1,0,0,0.5153538000304252,target,001,part4,2019_Jan_05_1600,fitts,60.14086189311004,
300,75,400,2,16,216,78,-0.22625,-0.2,1,0,0,0.5319964999798685,target,001,part4,2019_Jan_05_1600,fitts,60.14086189311004,
100,15,400,2,17,217,60,0.09375,0.3844444444444444,1,0,0,0.7807237000670284,target,001,part4,2019_Jan_05_1600,fitts,60.14086189311004,
200,15,400,2,18,218,61,0.09125,0.48444444444444446,1,0,0,0.5984867999795824,target,001,part4,2019_Jan_05_1600,fitts,60.14086189311004,
400,60,400,2,19,219,75,-0.18375,0.024444444444444446,1,0,0,0.4650693000294268,target,001,part4,2019_Jan_05_1600,fitts,60.14086189311004,
200,45,300,2,20,220,49,-0.1275,0.22,1,0,0,0.4986759000457823,target,001,part4,2019_Jan_05_1600,fitts,60.14086189311004,
100,75,200,2,21,221,36,-0.29625,0.23777777777777778,1,0,0,0.6321808001957834,target,001,part4,2019_Jan_05_1600,fitts,60.14086189311004,
400,45,400,2,22,222,71,-0.01625,-0.017777777777777778,1,0,0,0.5488259999547154,target,001,part4,2019_Jan_05_1600,fitts,60.14086189311004,
200,60,500,2,23,223,93,-0.05625,-0.28888888888888886,1,0,0,0.8809700000565499,target,001,part4,2019_Jan_05_1600,fitts,60.14086189311004,
300,60,300,2,24,224,54,-0.17375,0.10444444444444445,1,0,0,0.6993087998125702,target,001,part4,2019_Jan_05_1600,fitts,60.14086189311004,
200,15,300,2,25,225,41,0.025,0.4866666666666667,1,0,0,0.6817331998609006,target,001,part4,2019_Jan_05_1600,fitts,60.14086189311004,
300,45,500,2,26,226,90,0.0125,-0.011111111111111112,1,0,0,0.7480231998488307,target,001,part4,2019_Jan_05_1600,fitts,60.14086189311004,
200,15,200,2,27,227,21,-0.13875,0.5066666666666667,1,0,0,0.5319171000737697,target,001,part4,2019_Jan_05_1600,fitts,60.14086189311004,
100,60,500,2,28,228,92,-0.02875,-0.3111111111111111,1,0,0,0.981041599996388,target,001,part4,2019_Jan_05_1600,fitts,60.14086189311004,
400,45,200,2,29,229,31,-0.1325,0.3688888888888889,1,0,0,0.4322071000933647,target,001,part4,2019_Jan_05_1600,fitts,60.14086189311004,
300,60,500,2,30,230,94,-0.125,-0.19333333333333333,1,0,0,0.631947600049898,target,001,part4,2019_Jan_05_1600,fitts,60.14086189311004,
100,15,300,2,31,231,40,0.01375,0.49333333333333335,1,0,0,0.8313045999966562,target,001,part4,2019_Jan_05_1600,fitts,60.14086189311004,
100,60,100,2,32,232,12,-0.31125,0.4666666666666667,1,0,0,0.5652826000005007,target,001,part4,2019_Jan_05_1600,fitts,60.14086189311004,
400,45,300,2,33,233,51,-0.16,0.30444444444444446,1,0,0,0.4986568000167608,target,001,part4,2019_Jan_05_1600,fitts,60.14086189311004,
200,75,100,2,34,234,17,-0.38875,0.4577777777777778,1,0,0,0.7014693000819534,target,001,part4,2019_Jan_05_1600,fitts,60.14086189311004,
100,60,400,2,35,235,72,-0.16375,-0.06888888888888889,1,0,0,1.0483804000541568,target,001,part4,2019_Jan_05_1600,fitts,60.14086189311004,
200,45,100,2,36,236,9,-0.2625,0.4822222222222222,1,0,0,0.5984767000190914,target,001,part4,2019_Jan_05_1600,fitts,60.14086189311004,
100,30,500,2,37,237,84,0.14,0.14444444444444443,1,0,0,1.1813143000472337,target,001,part4,2019_Jan_05_1600,fitts,60.14086189311004,
400,15,100,2,38,238,3,-0.22,0.5666666666666667,1,0,0,0.3819804999511689,target,001,part4,2019_Jan_05_1600,fitts,60.14086189311004,
200,15,500,2,39,239,81,0.19625,0.37333333333333335,1,0,0,0.6148514999076724,target,001,part4,2019_Jan_05_1600,fitts,60.14086189311004,
400,45,500,2,40,240,91,0.0475,-0.006666666666666667,1,0,0,0.5982099999673665,target,001,part4,2019_Jan_05_1600,fitts,60.14086189311004,
100,45,100,2,41,241,8,-0.28125,0.4822222222222222,1,0,0,0.7829509999137372,target,001,part4,2019_Jan_05_1600,fitts,60.14086189311004,
200,75,300,2,42,242,57,-0.27875,0.09333333333333334,1,0,0,0.5149213001132011,target,001,part4,2019_Jan_05_1600,fitts,60.14086189311004,
400,15,300,2,43,243,43,-0.05,0.5555555555555556,1,0,0,0.614789400016889,target,001,part4,2019_Jan_05_1600,fitts,60.14086189311004,
100,15,200,2,44,244,20,-0.13875,0.5822222222222222,1,0,0,0.5816246001049876,target,001,part4,2019_Jan_05_1600,fitts,60.14086189311004,
400,75,200,2,45,245,39,-0.34625,0.25555555555555554,1,0,0,0.46517699980176985,target,001,part4,2019_Jan_05_1600,fitts,60.14086189311004,
400,75,500,2,46,246,99,-0.195,-0.5244444444444445,1,0,0,0.5649183001369238,target,001,part4,2019_Jan_05_1600,fitts,60.14086189311004,
100,30,200,2,47,247,24,-0.17375,0.4666666666666667,1,0,0,0.6317320000380278,target,001,part4,2019_Jan_05_1600,fitts,60.14086189311004,
400,75,100,2,48,248,19,-0.33625,0.4066666666666667,1,0,0,0.3661857000552118,target,001,part4,2019_Jan_05_1600,fitts,60.14086189311004,
200,75,500,2,49,249,97,-0.2,-0.42444444444444446,1,0,0,0.6320384000428021,target,001,part4,2019_Jan_05_1600,fitts,60.14086189311004,
400,15,400,2,50,250,63,0.12875,0.40444444444444444,1,0,0,0.5154800999443978,target,001,part4,2019_Jan_05_1600,fitts,60.14086189311004,
100,75,500,2,51,251,96,-0.21125,-0.4022222222222222,1,0,0,0.7818115998525172,target,001,part4,2019_Jan_05_1600,fitts,60.14086189311004,
300,60,400,2,52,252,74,-0.1375,-0.07111111111111111,1,0,0,0.6315580999944359,target,001,part4,2019_Jan_05_1600,fitts,60.14086189311004,
400,30,100,2,53,253,7,-0.26125,0.5755555555555556,1,0,0,0.34923409996554255,target,001,part4,2019_Jan_05_1600,fitts,60.14086189311004,
200,60,400,2,54,254,73,-0.15625,-0.04888888888888889,1,0,0,0.7654457001481205,target,001,part4,2019_Jan_05_1600,fitts,60.14086189311004,
300,75,100,2,55,255,18,-0.35,0.48,1,0,0,0.4821770000271499,target,001,part4,2019_Jan_05_1600,fitts,60.14086189311004,
300,30,500,2,56,256,86,0.12875,0.08666666666666667,1,0,0,0.6816829999443144,target,001,part4,2019_Jan_05_1600,fitts,60.14086189311004,
200,60,100,2,57,257,13,-0.29625,0.44666666666666666,1,0,0,1.2808087000157684,target,001,part4,2019_Jan_05_1600,fitts,60.14086189311004,
200,75,200,2,58,258,37,-0.31,0.24888888888888888,1,0,0,0.598632600158453,target,001,part4,2019_Jan_05_1600,fitts,60.14086189311004,
100,15,500,2,59,259,80,0.2275,0.4066666666666667,1,0,0,0.9650589998345822,target,001,part4,2019_Jan_05_1600,fitts,60.14086189311004,
200,45,200,2,60,260,29,-0.14625,0.3244444444444444,1,0,0,0.5818453999236226,target,001,part4,2019_Jan_05_1600,fitts,60.14086189311004,
300,30,300,2,61,261,46,-0.035,0.29555555555555557,1,0,0,0.4824329998809844,target,001,part4,2019_Jan_05_1600,fitts,60.14086189311004,
400,15,200,2,62,262,23,-0.1775,0.46,1,0,0,0.5992108001373708,target,001,part4,2019_Jan_05_1600,fitts,60.14086189311004,
400,30,400,2,63,263,67,0.105,0.21777777777777776,1,0,0,0.7479264999274164,target,001,part4,2019_Jan_05_1600,fitts,60.14086189311004,
400,15,500,2,64,264,83,0.175,0.29777777777777775,1,0,0,0.4820379000157118,target,001,part4,2019_Jan_05_1600,fitts,60.14086189311004,
300,45,100,2,65,265,10,-0.28,0.58,1,0,0,0.6150681998115033,target,001,part4,2019_Jan_05_1600,fitts,60.14086189311004,
300,45,300,2,66,266,50,-0.1225,0.1711111111111111,1,0,0,0.630000300006941,target,001,part4,2019_Jan_05_1600,fitts,60.14086189311004,
200,60,300,2,67,267,53,-0.2275,0.15555555555555556,1,0,0,0.581917200004682,target,001,part4,2019_Jan_05_1600,fitts,60.14086189311004,
100,30,400,2,68,268,64,0.04875,0.2644444444444444,1,0,0,0.7648861000780016,target,001,part4,2019_Jan_05_1600,fitts,60.14086189311004,
200,30,100,2,69,269,5,-0.27,0.5288888888888889,1,0,0,0.514681699918583,target,001,part4,2019_Jan_05_1600,fitts,60.14086189311004,
200,45,400,2,70,270,69,0.02125,0.011111111111111112,1,0,0,0.7814609999768436,target,001,part4,2019_Jan_05_1600,fitts,60.14086189311004,
400,60,500,2,71,271,95,-0.03,-0.3488888888888889,1,0,0,0.5986200999468565,target,001,part4,2019_Jan_05_1600,fitts,60.14086189311004,
300,75,200,2,72,272,38,-0.29875,0.2511111111111111,1,0,0,0.4503539998549968,target,001,part4,2019_Jan_05_1600,fitts,60.14086189311004,
100,30,100,2,73,273,4,-0.25875,0.5422222222222223,1,0,0,0.5481157000176609,target,001,part4,2019_Jan_05_1600,fitts,60.14086189311004,
200,30,400,2,74,274,65,0.0775,0.19555555555555557,1,0,0,0.6815784000791609,target,001,part4,2019_Jan_05_1600,fitts,60.14086189311004,
300,45,400,2,75,275,70,-0.07125,-0.07555555555555556,1,0,0,1.231081600068137,target,001,part4,2019_Jan_05_1600,fitts,60.14086189311004,
400,60,100,2,76,276,15,-0.3825,0.5711111111111111,1,0,0,0.8161573000252247,target,001,part4,2019_Jan_05_1600,fitts,60.14086189311004,
400,30,500,2,77,277,87,0.15375,0.13777777777777778,1,0,0,0.8651377998758107,target,001,part4,2019_Jan_05_1600,fitts,60.14086189311004,
300,30,100,2,78,278,6,-0.31375,0.5844444444444444,1,0,0,1.5310965001117438,target,001,part4,2019_Jan_05_1600,fitts,60.14086189311004,
100,75,400,2,79,279,76,-0.2575,-0.18222222222222223,1,0,0,0.9316385998390615,target,001,part4,2019_Jan_05_1600,fitts,60.14086189311004,
100,45,200,2,80,280,28,-0.2025,0.3466666666666667,1,0,0,1.0808814999181777,target,001,part4,2019_Jan_05_1600,fitts,60.14086189311004,
200,30,200,2,81,281,25,-0.14875,0.4622222222222222,1,0,0,0.7482322999276221,target,001,part4,2019_Jan_05_1600,fitts,60.14086189311004,
200,45,500,2,82,282,89,0.08,-0.08444444444444445,1,0,0,0.7156756999902427,target,001,part4,2019_Jan_05_1600,fitts,60.14086189311004,
300,15,300,2,83,283,42,0.06,0.4177777777777778,1,0,0,0.4993382999673486,target,001,part4,2019_Jan_05_1600,fitts,60.14086189311004,
300,75,300,2,84,284,58,-0.2675,0.13111111111111112,1,0,0,0.6483996000606567,target,001,part4,2019_Jan_05_1600,fitts,60.14086189311004,
300,30,400,2,85,285,66,0.03125,0.24666666666666667,1,0,0,1.0146506999153644,target,001,part4,2019_Jan_05_1600,fitts,60.14086189311004,
400,75,300,2,86,286,59,-0.2825,0.10888888888888888,1,0,0,0.6151856000069529,target,001,part4,2019_Jan_05_1600,fitts,60.14086189311004,
400,60,200,2,87,287,35,-0.19375,0.2311111111111111,1,0,0,0.5153333998750895,target,001,part4,2019_Jan_05_1600,fitts,60.14086189311004,
100,45,400,2,88,288,68,0.0225,0.04888888888888889,1,0,0,1.4974775000009686,target,001,part4,2019_Jan_05_1600,fitts,60.14086189311004,
300,60,200,2,89,289,34,-0.2175,0.27555555555555555,1,0,0,0.698959399946034,target,001,part4,2019_Jan_05_1600,fitts,60.14086189311004,
200,30,500,2,90,290,85,0.1575,0.10888888888888888,1,0,0,0.9646642999723554,target,001,part4,2019_Jan_05_1600,fitts,60.14086189311004,
400,30,200,2,91,291,27,-0.1925,0.42,1,0,0,0.6156823001801968,target,001,part4,2019_Jan_05_1600,fitts,60.14086189311004,
300,45,200,2,92,292,30,-0.22625,0.38,1,0,0,0.431441199965775,target,001,part4,2019_Jan_05_1600,fitts,60.14086189311004,
100,45,500,2,93,293,88,0.05125,-0.1288888888888889,1,0,0,0.6988345000427216,target,001,part4,2019_Jan_05_1600,fitts,60.14086189311004,
300,15,100,2,94,294,2,-0.2125,0.5377777777777778,1,0,0,0.4653485999442637,target,001,part4,2019_Jan_05_1600,fitts,60.14086189311004,
400,30,300,2,95,295,47,0.0225,0.2866666666666667,1,0,0,0.6477472998667508,target,001,part4,2019_Jan_05_1600,fitts,60.14086189311004,
300,30,200,2,96,296,26,-0.205,0.47333333333333333,1,0,0,0.44895959994755685,target,001,part4,2019_Jan_05_1600,fitts,60.14086189311004,
400,75,400,2,97,297,79,-0.2125,-0.19777777777777777,1,0,0,0.6995500000193715,target,001,part4,2019_Jan_05_1600,fitts,60.14086189311004,
100,30,300,2,98,298,44,-0.02625,0.3377777777777778,1,0,0,0.7817378998734057,target,001,part4,2019_Jan_05_1600,fitts,60.14086189311004,
100,60,200,2,99,299,32,-0.24125,0.2644444444444444,1,0,0,1.064783199923113,target,001,part4,2019_Jan_05_1600,fitts,60.14086189311004,
300,60,100,3,0,300,14,-0.3375,0.5511111111111111,1,0,0,0.4148999999742955,target,001,part4,2019_Jan_05_1600,fitts,60.14086189311004,
400,45,500,3,1,301,91,0.0525,-0.09555555555555556,1,0,0,0.6820288000162691,target,001,part4,2019_Jan_05_1600,fitts,60.14086189311004,
200,60,300,3,2,302,53,-0.18625,0.1111111111111111,1,0,0,0.7815767999272794,target,001,part4,2019_Jan_05_1600,fitts,60.14086189311004,
100,15,200,3,3,303,20,-0.1575,0.5777777777777777,1,0,0,2.92899650009349,target,001,part4,2019_Jan_05_1600,fitts,60.14086189311004,
400,60,400,3,4,304,75,-0.10625,-0.18666666666666668,1,0,0,0.7993428998161107,target,001,part4,2019_Jan_05_1600,fitts,60.14086189311004,
200,75,100,3,5,305,17,-0.33375,0.4711111111111111,1,0,0,0.43227249989286065,target,001,part4,2019_Jan_05_1600,fitts,60.14086189311004,
100,15,100,3,6,306,0,-0.25,0.6044444444444445,1,0,0,1.0316291998606175,target,001,part4,2019_Jan_05_1600,fitts,60.14086189311004,
100,45,500,3,7,307,88,0.06625,-0.14222222222222222,1,0,0,1.132200499996543,target,001,part4,2019_Jan_05_1600,fitts,60.14086189311004,
100,15,300,3,8,308,40,0.0025,0.48444444444444446,1,0,0,1.0302092998754233,target,001,part4,2019_Jan_05_1600,fitts,60.14086189311004,
400,15,100,3,9,309,3,-0.27375,0.6044444444444445,1,0,0,0.5817576001863927,target,001,part4,2019_Jan_05_1600,fitts,60.14086189311004,
200,15,300,3,10,310,41,0.0025,0.49777777777777776,1,0,0,1.3469934000167996,target,001,part4,2019_Jan_05_1600,fitts,60.14086189311004,
200,45,400,3,11,311,69,0.00375,0.0,1,0,0,0.5982129001058638,target,001,part4,2019_Jan_05_1600,fitts,60.14086189311004,
400,30,300,3,12,312,47,-0.10875,0.36444444444444446,1,0,0,0.5487285999115556,target,001,part4,2019_Jan_05_1600,fitts,60.14086189311004,
200,30,400,3,13,313,65,0.09,0.22666666666666666,1,0,0,0.9315591999329627,target,001,part4,2019_Jan_05_1600,fitts,60.14086189311004,
300,75,500,3,14,314,98,-0.17,-0.38666666666666666,1,0,0,0.5475586000829935,target,001,part4,2019_Jan_05_1600,fitts,60.14086189311004,
200,60,500,3,15,315,93,-0.09,-0.26666666666666666,1,0,0,0.6093840999528766,target,001,part4,2019_Jan_05_1600,fitts,60.14086189311004,
200,75,300,3,16,316,57,-0.2575,-0.0044444444444444444,1,0,0,0.5655524001922458,target,001,part4,2019_Jan_05_1600,fitts,60.14086189311004,
100,30,100,3,17,317,4,-0.2675,0.5666666666666667,1,0,0,0.7982249001506716,target,001,part4,2019_Jan_05_1600,fitts,60.14086189311004,
300,60,300,3,18,318,54,-0.205,0.06444444444444444,1,0,0,0.5815676001366228,target,001,part4,2019_Jan_05_1600,fitts,60.14086189311004,
200,15,500,3,19,319,81,0.26125,0.3688888888888889,1,0,0,0.5809985999949276,target,001,part4,2019_Jan_05_1600,fitts,60.14086189311004,
300,45,200,3,20,320,30,-0.25375,0.41333333333333333,1,0,0,0.4487543001305312,target,001,part4,2019_Jan_05_1600,fitts,60.14086189311004,
300,75,100,3,21,321,18,-0.395,0.44222222222222224,1,0,0,0.5321585999336094,target,001,part4,2019_Jan_05_1600,fitts,60.14086189311004,
200,75,500,3,22,322,97,-0.2325,-0.4111111111111111,1,0,0,0.831310500157997,target,001,part4,2019_Jan_05_1600,fitts,60.14086189311004,
400,45,200,3,23,323,31,-0.20625,0.43555555555555553,1,0,0,0.49706780002452433,target,001,part4,2019_Jan_05_1600,fitts,60.14086189311004,
100,15,500,3,24,324,80,0.24875,0.39555555555555555,1,0,0,0.6151004999410361,target,001,part4,2019_Jan_05_1600,fitts,60.14086189311004,
100,45,400,3,25,325,68,-0.04125,0.03777777777777778,1,0,0,1.0643453998491168,target,001,part4,2019_Jan_05_1600,fitts,60.14086189311004,
100,75,200,3,26,326,36,-0.29125,0.26666666666666666,1,0,0,0.8155737000051886,target,001,part4,2019_Jan_05_1600,fitts,60.14086189311004,
100,30,400,3,27,327,64,0.04375,0.24666666666666667,1,0,0,0.8477662999648601,target,001,part4,2019_Jan_05_1600,fitts,60.14086189311004,
400,15,300,3,28,328,43,-0.0825,0.5111111111111111,1,0,0,0.44876420008949935,target,001,part4,2019_Jan_05_1600,fitts,60.14086189311004,
100,45,300,3,29,329,48,-0.11625,0.22,1,0,0,1.0145404001232237,target,001,part4,2019_Jan_05_1600,fitts,60.14086189311004,
400,75,100,3,30,330,19,-0.3125,0.5066666666666667,1,0,0,0.4011398998554796,target,001,part4,2019_Jan_05_1600,fitts,60.14086189311004,
200,30,100,3,31,331,5,-0.1825,0.5222222222222223,1,0,0,0.5487804999575019,target,001,part4,2019_Jan_05_1600,fitts,60.14086189311004,
300,60,500,3,32,332,94,-0.0025,-0.32,1,0,0,0.864975499920547,target,001,part4,2019_Jan_05_1600,fitts,60.14086189311004,
400,75,300,3,33,333,59,-0.2875,0.044444444444444446,1,0,0,0.5982405999675393,target,001,part4,2019_Jan_05_1600,fitts,60.14086189311004,
300,45,300,3,34,334,50,-0.1075,0.19333333333333333,1,0,0,0.5318053001537919,target,001,part4,2019_Jan_05_1600,fitts,60.14086189311004,
300,75,300,3,35,335,58,-0.2925,0.0022222222222222222,1,0,0,0.6985410000197589,target,001,part4,2019_Jan_05_1600,fitts,60.14086189311004,
100,60,200,3,36,336,32,-0.25875,0.28444444444444444,1,0,0,1.5968723001424223,target,001,part4,2019_Jan_05_1600,fitts,60.14086189311004,
100,30,500,3,37,337,84,0.1825,0.12,1,0,0,0.7985113998875022,target,001,part4,2019_Jan_05_1600,fitts,60.14086189311004,
400,75,400,3,38,338,79,-0.315,-0.2577777777777778,1,0,0,0.4819763998966664,target,001,part4,2019_Jan_05_1600,fitts,60.14086189311004,
400,45,400,3,39,339,71,0.0,0.03111111111111111,1,0,0,2.44599310006015,target,001,part4,2019_Jan_05_1600,fitts,60.14086189311004,
400,75,500,3,40,340,99,-0.2325,-0.34444444444444444,1,0,0,0.5819653000216931,target,001,part4,2019_Jan_05_1600,fitts,60.14086189311004,
200,15,100,3,41,341,1,-0.165,0.5444444444444444,1,0,0,0.3828682000748813,target,001,part4,2019_Jan_05_1600,fitts,60.14086189311004,
300,15,100,3,42,342,2,-0.235,0.6066666666666667,1,0,0,0.7484017999377102,target,001,part4,2019_Jan_05_1600,fitts,60.14086189311004,
300,15,400,3,43,343,62,0.13125,0.3888888888888889,1,0,0,0.8978609000332654,target,001,part4,2019_Jan_05_1600,fitts,60.14086189311004,
200,45,100,3,44,344,9,-0.24,0.48,1,0,0,0.7314623999409378,target,001,part4,2019_Jan_05_1600,fitts,60.14086189311004,
300,60,200,3,45,345,34,-0.2525,0.30444444444444446,1,0,0,0.5647279000841081,target,001,part4,2019_Jan_05_1600,fitts,60.14086189311004,
300,30,500,3,46,346,86,0.12,0.08,1,0,0,0.5980016000103205,target,001,part4,2019_Jan_05_1600,fitts,60.14086189311004,
400,30,500,3,47,347,87,0.165,0.11777777777777777,1,0,0,0.615146400174126,target,001,part4,2019_Jan_05_1600,fitts,60.14086189311004,
400,45,300,3,48,348,51,-0.10125,0.20444444444444446,1,0,0,0.564011299982667,target,001,part4,2019_Jan_05_1600,fitts,60.14086189311004,
300,15,200,3,49,349,22,-0.11375,0.49333333333333335,1,0,0,0.4653592000249773,target,001,part4,2019_Jan_05_1600,fitts,60.14086189311004,
400,15,500,3,50,350,83,0.195,0.39111111111111113,1,0,0,0.6317857000976801,target,001,part4,2019_Jan_05_1600,fitts,60.14086189311004,
200,30,300,3,51,351,45,-0.0225,0.3111111111111111,1,0,0,0.6819486001040787,target,001,part4,2019_Jan_05_1600,fitts,60.14086189311004,
300,30,400,3,52,352,66,0.06875,0.28,1,0,0,0.7815700999926776,target,001,part4,2019_Jan_05_1600,fitts,60.14086189311004,
400,15,200,3,53,353,23,0.00875,0.52,1,0,0,0.416313000023365,target,001,part4,2019_Jan_05_1600,fitts,60.14086189311004,
300,15,300,3,54,354,42,-0.0025,0.5111111111111111,1,0,0,0.5819343999028206,target,001,part4,2019_Jan_05_1600,fitts,60.14086189311004,
100,75,400,3,55,355,76,-0.25125,-0.1711111111111111,1,0,0,6.889880200149491,target,001,part4,2019_Jan_05_1600,fitts,60.14086189311004,
400,60,500,3,56,356,95,-0.06,-0.2911111111111111,1,0,0,0.6984254000708461,target,001,part4,2019_Jan_05_1600,fitts,60.14086189311004,
100,75,100,3,57,357,16,-0.3275,0.40444444444444444,1,0,0,0.5982959000393748,target,001,part4,2019_Jan_05_1600,fitts,60.14086189311004,
100,45,200,3,58,358,28,-0.2,0.3422222222222222,1,0,0,0.7317776000127196,target,001,part4,2019_Jan_05_1600,fitts,60.14086189311004,
400,60,300,3,59,359,55,-0.21625,0.1711111111111111,1,0,0,0.5184061001054943,target,001,part4,2019_Jan_05_1600,fitts,60.14086189311004,
100,75,300,3,60,360,56,-0.27375,0.04,1,0,0,0.8828106999862939,target,001,part4,2019_Jan_05_1600,fitts,60.14086189311004,
400,30,400,3,61,361,67,0.00875,0.1688888888888889,1,0,0,0.5343338998500258,target,001,part4,2019_Jan_05_1600,fitts,60.14086189311004,
400,60,100,3,62,362,15,-0.295,0.46,1,0,0,0.34848170005716383,target,001,part4,2019_Jan_05_1600,fitts,60.14086189311004,
100,60,400,3,63,363,72,-0.145,-0.09111111111111111,1,0,0,0.7652094999793917,target,001,part4,2019_Jan_05_1600,fitts,60.14086189311004,
200,60,200,3,64,364,33,-0.2425,0.25555555555555554,1,0,0,0.6155267001595348,target,001,part4,2019_Jan_05_1600,fitts,60.14086189311004,
200,45,500,3,65,365,89,0.03375,-0.10222222222222223,1,0,0,0.815209599910304,target,001,part4,2019_Jan_05_1600,fitts,60.14086189311004,
400,30,200,3,66,366,27,-0.15125,0.4022222222222222,1,0,0,0.44904109998606145,target,001,part4,2019_Jan_05_1600,fitts,60.14086189311004,
300,75,200,3,67,367,38,-0.31875,0.29777777777777775,1,0,0,0.49871439998969436,target,001,part4,2019_Jan_05_1600,fitts,60.14086189311004,
200,15,400,3,68,368,61,0.07875,0.40444444444444444,1,0,0,1.178505899850279,target,001,part4,2019_Jan_05_1600,fitts,60.14086189311004,
100,45,100,3,69,369,8,-0.3025,0.5311111111111111,1,0,0,0.6816108000930399,target,001,part4,2019_Jan_05_1600,fitts,60.14086189311004,
200,75,400,3,70,370,77,-0.26125,-0.2088888888888889,1,0,0,0.7152833000291139,target,001,part4,2019_Jan_05_1600,fitts,60.14086189311004,
200,45,200,3,71,371,29,-0.19,0.34444444444444444,1,0,0,0.4824940001126379,target,001,part4,2019_Jan_05_1600,fitts,60.14086189311004,
100,75,500,3,72,372,96,-0.2025,-0.4066666666666667,1,0,0,0.948195300064981,target,001,part4,2019_Jan_05_1600,fitts,60.14086189311004,
200,75,200,3,73,373,37,-0.355,0.2688888888888889,1,0,0,0.6172837999183685,target,001,part4,2019_Jan_05_1600,fitts,60.14086189311004,
400,30,100,3,74,374,7,-0.30125,0.5555555555555556,1,0,0,0.44892649981193244,target,001,part4,2019_Jan_05_1600,fitts,60.14086189311004,
100,60,100,3,75,375,12,-0.3325,0.48444444444444446,1,0,0,0.715139500098303,target,001,part4,2019_Jan_05_1600,fitts,60.14086189311004,
400,75,200,3,76,376,39,-0.325,0.2644444444444444,1,0,0,0.4988170999567956,target,001,part4,2019_Jan_05_1600,fitts,60.14086189311004,
200,45,300,3,77,377,49,-0.12,0.2,1,0,0,0.7151629999279976,target,001,part4,2019_Jan_05_1600,fitts,60.14086189311004,
100,30,300,3,78,378,44,-0.0675,0.31777777777777777,1,0,0,1.3478759001009166,target,001,part4,2019_Jan_05_1600,fitts,60.14086189311004,
200,30,500,3,79,379,85,0.1925,0.09777777777777778,1,0,0,0.814756799954921,target,001,part4,2019_Jan_05_1600,fitts,60.14086189311004,
300,15,500,3,80,380,82,0.23,0.35555555555555557,1,0,0,0.7659736000932753,target,001,part4,2019_Jan_05_1600,fitts,60.14086189311004,
300,75,400,3,81,381,78,-0.2725,-0.2644444444444444,1,0,0,0.5823160000145435,target,001,part4,2019_Jan_05_1600,fitts,60.14086189311004,
300,45,100,3,82,382,10,-0.2275,0.4444444444444444,1,0,0,0.3657154000829905,target,001,part4,2019_Jan_05_1600,fitts,60.14086189311004,
200,60,400,3,83,383,73,-0.155,-0.02666666666666667,1,0,0,0.5993232000619173,target,001,part4,2019_Jan_05_1600,fitts,60.14086189311004,
200,30,200,3,84,384,25,-0.1625,0.4911111111111111,1,0,0,0.532046299893409,target,001,part4,2019_Jan_05_1600,fitts,60.14086189311004,
100,15,400,3,85,385,60,0.085,0.44666666666666666,1,0,0,0.8802212998270988,target,001,part4,2019_Jan_05_1600,fitts,60.14086189311004,
400,45,100,3,86,386,11,-0.3175,0.54,1,0,0,0.4154487999621779,target,001,part4,2019_Jan_05_1600,fitts,60.14086189311004,
200,60,100,3,87,387,13,-0.30125,0.47555555555555556,1,0,0,0.381971700116992,target,001,part4,2019_Jan_05_1600,fitts,60.14086189311004,
300,45,400,3,88,388,70,-0.035,0.05333333333333334,1,0,0,0.5983571000397205,target,001,part4,2019_Jan_05_1600,fitts,60.14086189311004,
300,45,500,3,89,389,90,0.0,-0.08666666666666667,1,0,0,0.7479681000113487,target,001,part4,2019_Jan_05_1600,fitts,60.14086189311004,
300,30,100,3,90,390,6,-0.2975,0.4888888888888889,1,0,0,0.49812340014614165,target,001,part4,2019_Jan_05_1600,fitts,60.14086189311004,
200,15,200,3,91,391,21,-0.15,0.5088888888888888,1,0,0,0.6797426999546587,target,001,part4,2019_Jan_05_1600,fitts,60.14086189311004,
100,60,500,3,92,392,92,-0.07125,-0.3288888888888889,1,0,0,0.9488647999241948,target,001,part4,2019_Jan_05_1600,fitts,60.14086189311004,
100,60,300,3,93,393,52,-0.1975,0.08888888888888889,1,0,0,0.6652573999017477,target,001,part4,2019_Jan_05_1600,fitts,60.14086189311004,
300,30,300,3,94,394,46,-0.075,0.28,1,0,0,0.5158865000121295,target,001,part4,2019_Jan_05_1600,fitts,60.14086189311004,
400,15,400,3,95,395,63,0.0125,0.4288888888888889,1,0,0,0.4488025999162346,target,001,part4,2019_Jan_05_1600,fitts,60.14086189311004,
300,60,400,3,96,396,74,-0.165,-0.13555555555555557,1,0,0,0.5819051000289619,target,001,part4,2019_Jan_05_1600,fitts,60.14086189311004,
400,60,200,3,97,397,35,-0.28625,0.3422222222222222,1,0,0,0.5149383000098169,target,001,part4,2019_Jan_05_1600,fitts,60.14086189311004,
100,30,200,3,98,398,24,-0.15625,0.41333333333333333,1,0,0,0.8979863999411464,target,001,part4,2019_Jan_05_1600,fitts,60.14086189311004,
300,30,200,3,99,399,26,-0.13125,0.42444444444444446,1,0,0,0.7152086000423878,target,001,part4,2019_Jan_05_1600,fitts,60.14086189311004,
200,30,300,4,0,400,45,-0.0825,0.3711111111111111,1,0,0,0.5652958999853581,target,001,part4,2019_Jan_05_1600,fitts,60.14086189311004,
400,15,200,4,1,401,23,-0.07875,0.5422222222222223,1,0,0,0.4987689999397844,target,001,part4,2019_Jan_05_1600,fitts,60.14086189311004,
200,30,100,4,2,402,5,-0.2725,0.5888888888888889,1,0,0,0.5491430999245495,target,001,part4,2019_Jan_05_1600,fitts,60.14086189311004,
300,45,300,4,3,403,50,-0.1075,0.29333333333333333,1,0,0,0.5486175999976695,target,001,part4,2019_Jan_05_1600,fitts,60.14086189311004,
400,30,200,4,4,404,27,-0.19125,0.45111111111111113,1,0,0,0.44834580016322434,target,001,part4,2019_Jan_05_1600,fitts,60.14086189311004,
100,60,200,4,5,405,32,-0.24,0.2644444444444444,1,0,0,0.6986161998938769,target,001,part4,2019_Jan_05_1600,fitts,60.14086189311004,
400,45,100,4,6,406,11,-0.28,0.41555555555555557,1,0,0,0.5483514999505132,target,001,part4,2019_Jan_05_1600,fitts,60.14086189311004,
300,60,300,4,7,407,54,-0.21375,0.15333333333333332,1,0,0,0.4821403999812901,target,001,part4,2019_Jan_05_1600,fitts,60.14086189311004,
400,15,300,4,8,408,43,-0.0275,0.5133333333333333,1,0,0,0.5647579999640584,target,001,part4,2019_Jan_05_1600,fitts,60.14086189311004,
300,30,100,4,9,409,6,-0.35625,0.6733333333333333,1,0,0,0.19943829998373985,target,001,part4,2019_Jan_05_1600,fitts,60.14086189311004,
200,15,400,4,10,410,61,0.05875,0.44666666666666666,1,0,0,0.9818533998914063,target,001,part4,2019_Jan_05_1600,fitts,60.14086189311004,
100,75,200,4,11,411,36,-0.305,0.2777777777777778,1,0,0,0.931442900095135,target,001,part4,2019_Jan_05_1600,fitts,60.14086189311004,
200,75,200,4,12,412,37,-0.30375,0.2733333333333333,1,0,0,1.9634649998042732,target,001,part4,2019_Jan_05_1600,fitts,60.14086189311004,
400,15,400,4,13,413,63,0.145,0.47333333333333333,1,0,0,1.1643302999436855,target,001,part4,2019_Jan_05_1600,fitts,60.14086189311004,
300,60,400,4,14,414,74,-0.19,-0.09777777777777778,1,0,0,0.798446400091052,target,001,part4,2019_Jan_05_1600,fitts,60.14086189311004,
300,15,300,4,15,415,42,-0.09625,0.5333333333333333,1,0,0,0.4155891998670995,target,001,part4,2019_Jan_05_1600,fitts,60.14086189311004,
100,30,500,4,16,416,84,0.1575,0.14222222222222222,1,0,0,0.6314129999373108,target,001,part4,2019_Jan_05_1600,fitts,60.14086189311004,
100,30,200,4,17,417,24,-0.10875,0.44222222222222224,1,0,0,1.3976632999256253,target,001,part4,2019_Jan_05_1600,fitts,60.14086189311004,
100,15,400,4,18,418,60,0.1325,0.4266666666666667,1,0,0,0.848139800131321,target,001,part4,2019_Jan_05_1600,fitts,60.14086189311004,
200,45,100,4,19,419,9,-0.30875,0.5466666666666666,1,0,0,0.49851319985464215,target,001,part4,2019_Jan_05_1600,fitts,60.14086189311004,
400,60,100,4,20,420,15,-0.2625,0.4888888888888889,1,0,0,0.4154774001799524,target,001,part4,2019_Jan_05_1600,fitts,60.14086189311004,
100,15,200,4,21,421,20,-0.10625,0.56,1,0,0,0.615474299993366,target,001,part4,2019_Jan_05_1600,fitts,60.14086189311004,
200,75,500,4,22,422,97,-0.23,-0.36,1,0,0,0.882093199994415,target,001,part4,2019_Jan_05_1600,fitts,60.14086189311004,
100,60,300,4,23,423,52,-0.1675,0.08444444444444445,1,0,0,1.0315819999668747,target,001,part4,2019_Jan_05_1600,fitts,60.14086189311004,
400,30,100,4,24,424,7,-0.2275,0.5866666666666667,1,0,0,0.5983574998099357,target,001,part4,2019_Jan_05_1600,fitts,60.14086189311004,
300,60,500,4,25,425,94,-0.10625,-0.24444444444444444,1,0,0,0.697393300011754,target,001,part4,2019_Jan_05_1600,fitts,60.14086189311004,
200,45,400,4,26,426,69,-0.01375,0.022222222222222223,1,0,0,1.2304668999277055,target,001,part4,2019_Jan_05_1600,fitts,60.14086189311004,
400,75,500,4,27,427,99,-0.27375,-0.37333333333333335,1,0,0,0.7815588000230491,target,001,part4,2019_Jan_05_1600,fitts,60.14086189311004,
300,45,500,4,28,428,90,0.05375,-0.11333333333333333,1,0,0,0.6151924000587314,target,001,part4,2019_Jan_05_1600,fitts,60.14086189311004,
100,45,100,4,29,429,8,-0.30875,0.52,1,0,0,0.6151298999320716,target,001,part4,2019_Jan_05_1600,fitts,60.14086189311004,
200,75,300,4,30,430,57,-0.2775,0.09777777777777778,1,0,0,0.5987219999078661,target,001,part4,2019_Jan_05_1600,fitts,60.14086189311004,
400,75,300,4,31,431,59,-0.35,0.042222222222222223,1,0,0,0.5153595001902431,target,001,part4,2019_Jan_05_1600,fitts,60.14086189311004,
100,15,100,4,32,432,0,-0.23125,0.6111111111111112,1,0,0,0.4823097998742014,target,001,part4,2019_Jan_05_1600,fitts,60.14086189311004,
400,45,500,4,33,433,91,0.01625,-0.12444444444444444,1,0,0,0.6483257000800222,target,001,part4,2019_Jan_05_1600,fitts,60.14086189311004,
300,75,400,4,34,434,78,-0.25625,-0.14666666666666667,1,0,0,0.8979372999165207,target,001,part4,2019_Jan_05_1600,fitts,60.14086189311004,
400,45,300,4,35,435,51,-0.0775,0.13777777777777778,1,0,0,2.114403999876231,target,001,part4,2019_Jan_05_1600,fitts,60.14086189311004,
300,75,100,4,36,436,18,-0.345,0.48444444444444446,1,0,0,0.399051999906078,target,001,part4,2019_Jan_05_1600,fitts,60.14086189311004,
200,75,100,4,37,437,17,-0.365,0.4688888888888889,1,0,0,0.3986506999935955,target,001,part4,2019_Jan_05_1600,fitts,60.14086189311004,
300,75,500,4,38,438,98,-0.20625,-0.4222222222222222,1,0,0,0.6483954000286758,target,001,part4,2019_Jan_05_1600,fitts,60.14086189311004,
300,60,100,4,39,439,14,-0.33125,0.5333333333333333,1,0,0,0.5795267000794411,target,001,part4,2019_Jan_05_1600,fitts,60.14086189311004,
100,45,400,4,40,440,68,-0.0125,0.057777777777777775,1,0,0,0.7481053001247346,target,001,part4,2019_Jan_05_1600,fitts,60.14086189311004,
300,45,400,4,41,441,70,-0.045,0.06666666666666667,1,0,0,0.5319859001319855,target,001,part4,2019_Jan_05_1600,fitts,60.14086189311004,
200,45,300,4,42,442,49,-0.08125,0.18,1,0,0,0.7980931999627501,target,001,part4,2019_Jan_05_1600,fitts,60.14086189311004,
100,15,500,4,43,443,80,0.23,0.39111111111111113,1,0,0,0.7666509000118822,target,001,part4,2019_Jan_05_1600,fitts,60.14086189311004,
300,30,500,4,44,444,86,0.19,0.08666666666666667,1,0,0,0.7485442999750376,target,001,part4,2019_Jan_05_1600,fitts,60.14086189311004,
100,60,400,4,45,445,72,-0.115,-0.09777777777777778,1,0,0,1.6469797999598086,target,001,part4,2019_Jan_05_1600,fitts,60.14086189311004,
300,75,200,4,46,446,38,-0.36875,0.24222222222222223,1,0,0,0.5976344000082463,target,001,part4,2019_Jan_05_1600,fitts,60.14086189311004,
100,45,300,4,47,447,48,-0.095,0.22,1,0,0,0.5151273999363184,target,001,part4,2019_Jan_05_1600,fitts,60.14086189311004,
100,75,300,4,48,448,56,-0.2875,0.057777777777777775,1,0,0,0.7833730999846011,target,001,part4,2019_Jan_05_1600,fitts,60.14086189311004,
200,60,100,4,49,449,13,-0.3225,0.45555555555555555,1,0,0,0.5320104998536408,target,001,part4,2019_Jan_05_1600,fitts,60.14086189311004,
400,75,200,4,50,450,39,-0.2925,0.34,1,0,0,0.43271399987861514,target,001,part4,2019_Jan_05_1600,fitts,60.14086189311004,
200,15,100,4,51,451,1,-0.25125,0.62,1,0,0,0.5152404000982642,target,001,part4,2019_Jan_05_1600,fitts,60.14086189311004,
200,75,400,4,52,452,77,-0.27125,-0.19777777777777777,1,0,0,0.648004800081253,target,001,part4,2019_Jan_05_1600,fitts,60.14086189311004,
400,45,400,4,53,453,71,-0.02875,0.04888888888888889,1,0,0,0.49880279996432364,target,001,part4,2019_Jan_05_1600,fitts,60.14086189311004,
300,30,400,4,54,454,66,0.09375,0.2822222222222222,1,0,0,0.5987551999278367,target,001,part4,2019_Jan_05_1600,fitts,60.14086189311004,
200,15,500,4,55,455,81,0.205,0.38,1,0,0,0.7969334998633713,target,001,part4,2019_Jan_05_1600,fitts,60.14086189311004,
200,45,200,4,56,456,29,-0.19,0.31555555555555553,1,0,0,1.196447700029239,target,001,part4,2019_Jan_05_1600,fitts,60.14086189311004,
300,45,200,4,57,457,30,-0.12625,0.34444444444444444,1,0,0,0.7321798999328166,target,001,part4,2019_Jan_05_1600,fitts,60.14086189311004,
400,30,400,4,58,458,67,-0.00125,0.24444444444444444,1,0,0,0.6978517000097781,target,001,part4,2019_Jan_05_1600,fitts,60.14086189311004,
400,60,400,4,59,459,75,-0.14375,-0.015555555555555555,1,0,0,0.7983229998499155,target,001,part4,2019_Jan_05_1600,fitts,60.14086189311004,
400,15,500,4,60,460,83,0.24,0.3933333333333333,1,0,0,0.8811218999326229,target,001,part4,2019_Jan_05_1600,fitts,60.14086189311004,
100,45,200,4,61,461,28,-0.215,0.36,1,0,0,1.0173595000524074,target,001,part4,2019_Jan_05_1600,fitts,60.14086189311004,
300,60,200,4,62,462,34,-0.2625,0.21555555555555556,1,0,0,1.114425800042227,target,001,part4,2019_Jan_05_1600,fitts,60.14086189311004,
300,15,400,4,63,463,62,0.11,0.4266666666666667,1,0,0,0.6107952001038939,target,001,part4,2019_Jan_05_1600,fitts,60.14086189311004,
400,30,500,4,64,464,87,0.2775,0.09111111111111111,1,0,0,0.8645049999468029,target,001,part4,2019_Jan_05_1600,fitts,60.14086189311004,
400,60,300,4,65,465,55,-0.19375,0.07777777777777778,1,0,0,3.2930439000483602,target,001,part4,2019_Jan_05_1600,fitts,60.14086189311004,
100,75,500,4,66,466,96,-0.20125,-0.4066666666666667,1,0,0,0.9317910999525338,target,001,part4,2019_Jan_05_1600,fitts,60.14086189311004,
300,15,200,4,67,467,22,-0.13,0.47555555555555556,1,0,0,0.5150498000439256,target,001,part4,2019_Jan_05_1600,fitts,60.14086189311004,
100,30,400,4,68,468,64,0.08625,0.1711111111111111,1,0,0,0.5499611999839544,target,001,part4,2019_Jan_05_1600,fitts,60.14086189311004,
200,45,500,4,69,469,89,0.06625,-0.12,1,0,0,0.6819213000126183,target,001,part4,2019_Jan_05_1600,fitts,60.14086189311004,
200,60,500,4,70,470,93,-0.06125,-0.33555555555555555,1,0,0,0.6151803000830114,target,001,part4,2019_Jan_05_1600,fitts,60.14086189311004,
200,60,300,4,71,471,53,-0.14625,0.06444444444444444,1,0,0,0.5816895999014378,target,001,part4,2019_Jan_05_1600,fitts,60.14086189311004,
300,45,100,4,72,472,10,-0.2625,0.47333333333333333,1,0,0,0.44825319992378354,target,001,part4,2019_Jan_05_1600,fitts,60.14086189311004,
200,60,200,4,73,473,33,-0.24375,0.32666666666666666,1,0,0,0.5138286000583321,target,001,part4,2019_Jan_05_1600,fitts,60.14086189311004,
100,45,500,4,74,474,88,0.075,-0.12,1,0,0,0.8649319000542164,target,001,part4,2019_Jan_05_1600,fitts,60.14086189311004,
100,15,300,4,75,475,40,-0.00875,0.5,1,0,0,0.5154267998877913,target,001,part4,2019_Jan_05_1600,fitts,60.14086189311004,
200,60,400,4,76,476,73,-0.1175,-0.1111111111111111,1,0,0,0.6820510998368263,target,001,part4,2019_Jan_05_1600,fitts,60.14086189311004,
400,15,100,4,77,477,3,-0.2175,0.5422222222222223,1,0,0,0.3819977000821382,target,001,part4,2019_Jan_05_1600,fitts,60.14086189311004,
400,30,300,4,78,478,47,-0.23375,0.34444444444444444,1,0,0,0.632172399898991,target,001,part4,2019_Jan_05_1600,fitts,60.14086189311004,
400,60,200,4,79,479,35,-0.18125,0.23333333333333334,1,0,0,0.4485516999848187,target,001,part4,2019_Jan_05_1600,fitts,60.14086189311004,
200,30,500,4,80,480,85,0.1225,0.13555555555555557,1,0,0,0.6816414999775589,target,001,part4,2019_Jan_05_1600,fitts,60.14086189311004,
100,60,500,4,81,481,92,-0.08,-0.3422222222222222,1,0,0,0.8316627000458539,target,001,part4,2019_Jan_05_1600,fitts,60.14086189311004,
200,15,300,4,82,482,41,-0.0375,0.5088888888888888,1,0,0,0.5318575000856072,target,001,part4,2019_Jan_05_1600,fitts,60.14086189311004,
100,30,300,4,83,483,44,-0.05375,0.32222222222222224,1,0,0,0.8315507001243532,target,001,part4,2019_Jan_05_1600,fitts,60.14086189311004,
300,30,200,4,84,484,26,-0.18875,0.4622222222222222,1,0,0,0.48197380010969937,target,001,part4,2019_Jan_05_1600,fitts,60.14086189311004,
300,15,100,4,85,485,2,-0.21625,0.6355555555555555,1,0,0,0.38235819991678,target,001,part4,2019_Jan_05_1600,fitts,60.14086189311004,
400,60,500,4,86,486,95,-0.0725,-0.1688888888888889,1,0,0,0.5493993000127375,target,001,part4,2019_Jan_05_1600,fitts,60.14086189311004,
200,30,400,4,87,487,65,0.01375,0.24666666666666667,1,0,0,0.6629700001794845,target,001,part4,2019_Jan_05_1600,fitts,60.14086189311004,
400,75,100,4,88,488,19,-0.29,0.49333333333333335,1,0,0,0.41438800003379583,target,001,part4,2019_Jan_05_1600,fitts,60.14086189311004,
300,15,500,4,89,489,82,0.245,0.3688888888888889,1,0,0,0.5661086000036448,target,001,part4,2019_Jan_05_1600,fitts,60.14086189311004,
100,30,100,4,90,490,4,-0.27,0.5688888888888889,1,0,0,0.7651959999930114,target,001,part4,2019_Jan_05_1600,fitts,60.14086189311004,
100,60,100,4,91,491,12,-0.32625,0.5088888888888888,1,0,0,0.5485185999423265,target,001,part4,2019_Jan_05_1600,fitts,60.14086189311004,
100,75,100,4,92,492,16,-0.32875,0.4488888888888889,1,0,0,0.5654088999144733,target,001,part4,2019_Jan_05_1600,fitts,60.14086189311004,
300,75,300,4,93,493,58,-0.27125,0.1111111111111111,1,0,0,0.514699500054121,target,001,part4,2019_Jan_05_1600,fitts,60.14086189311004,
100,75,400,4,94,494,76,-0.23625,-0.15333333333333332,1,0,0,0.6980383999180049,target,001,part4,2019_Jan_05_1600,fitts,60.14086189311004,
400,75,400,4,95,495,79,-0.27625,-0.20666666666666667,1,0,0,0.5316900999750942,target,001,part4,2019_Jan_05_1600,fitts,60.14086189311004,
200,30,200,4,96,496,25,-0.205,0.4688888888888889,1,0,0,0.5977402999997139,target,001,part4,2019_Jan_05_1600,fitts,60.14086189311004,
300,30,300,4,97,497,46,-0.05125,0.2866666666666667,1,0,0,0.4321628001052886,target,001,part4,2019_Jan_05_1600,fitts,60.14086189311004,
200,15,200,4,98,498,21,-0.11625,0.52,1,0,0,0.7980155998375267,target,001,part4,2019_Jan_05_1600,fitts,60.14086189311004,
400,45,200,4,99,499,31,-0.2675,0.47555555555555556,1,0,0,0.41559810005128384,target,001,part4,2019_Jan_05_1600,fitts,60.14086189311004,
