size,direction,distance,trials.thisRepN,trials.thisTrialN,trials.thisN,trials.thisIndex,mouse_target.x,mouse_target.y,mouse_target.leftButton,mouse_target.midButton,mouse_target.rightButton,mouse_target.time,mouse_target.clicked_name,session,participant,date,expName,frameRate,
200,15,500,0,0,0,81,0.21375,0.38222222222222224,1,0,0,1.0145974999759346,target,001,part3,2019_Jan_02_1701,fitts,60.0602764769956,
100,60,200,0,1,1,32,-0.25375,0.28,1,0,0,0.7814289999660105,target,001,part3,2019_Jan_02_1701,fitts,60.0602764769956,
100,75,400,0,2,2,76,-0.23625,-0.20222222222222222,1,0,0,0.9152868001256138,target,001,part3,2019_Jan_02_1701,fitts,60.0602764769956,
400,60,400,0,3,3,75,-0.145,-0.042222222222222223,1,0,0,0.6317816998343915,target,001,part3,2019_Jan_02_1701,fitts,60.0602764769956,
200,15,300,0,4,4,41,-0.01375,0.4711111111111111,1,0,0,0.8148242000024766,target,001,part3,2019_Jan_02_1701,fitts,60.0602764769956,
300,45,400,0,5,5,70,-0.04,0.044444444444444446,1,0,0,0.5654130999464542,target,001,part3,2019_Jan_02_1701,fitts,60.0602764769956,
200,15,100,0,6,6,1,-0.25875,0.56,1,0,0,0.6151062999852002,target,001,part3,2019_Jan_02_1701,fitts,60.0602764769956,
100,30,500,0,7,7,84,0.17,0.1,1,0,0,1.0147818000987172,target,001,part3,2019_Jan_02_1701,fitts,60.0602764769956,
400,60,100,0,8,8,15,-0.31625,0.48,1,0,0,0.5484100000467151,target,001,part3,2019_Jan_02_1701,fitts,60.0602764769956,
200,60,300,0,9,9,53,-0.21375,0.12444444444444444,1,0,0,0.5654513000044972,target,001,part3,2019_Jan_02_1701,fitts,60.0602764769956,
400,30,100,0,10,10,7,-0.2625,0.49333333333333335,1,0,0,0.4488921999000013,target,001,part3,2019_Jan_02_1701,fitts,60.0602764769956,
200,75,300,0,11,11,57,-0.29,0.042222222222222223,1,0,0,0.5987272001802921,target,001,part3,2019_Jan_02_1701,fitts,60.0602764769956,
200,75,500,0,12,12,97,-0.20375,-0.4066666666666667,1,0,0,0.7141346000134945,target,001,part3,2019_Jan_02_1701,fitts,60.0602764769956,
300,60,300,0,13,13,54,-0.21625,0.1111111111111111,1,0,0,0.615076599875465,target,001,part3,2019_Jan_02_1701,fitts,60.0602764769956,
100,30,100,0,14,14,4,-0.27375,0.54,1,0,0,0.7154138998594135,target,001,part3,2019_Jan_02_1701,fitts,60.0602764769956,
300,15,300,0,15,15,42,-0.03625,0.45555555555555555,1,0,0,0.5818250998854637,target,001,part3,2019_Jan_02_1701,fitts,60.0602764769956,
100,45,100,0,16,16,8,-0.30375,0.5288888888888889,1,0,0,0.6480074999853969,target,001,part3,2019_Jan_02_1701,fitts,60.0602764769956,
100,45,200,0,17,17,28,-0.20125,0.35777777777777775,1,0,0,0.7487070001661777,target,001,part3,2019_Jan_02_1701,fitts,60.0602764769956,
400,30,400,0,18,18,67,0.05625,0.1511111111111111,1,0,0,0.5154011999256909,target,001,part3,2019_Jan_02_1701,fitts,60.0602764769956,
400,30,200,0,19,19,27,-0.16375,0.4444444444444444,1,0,0,0.44872789992950857,target,001,part3,2019_Jan_02_1701,fitts,60.0602764769956,
300,75,200,0,20,20,38,-0.2925,0.2688888888888889,1,0,0,0.5487673999741673,target,001,part3,2019_Jan_02_1701,fitts,60.0602764769956,
300,75,500,0,21,21,98,-0.2375,-0.3422222222222222,1,0,0,0.6804223998915404,target,001,part3,2019_Jan_02_1701,fitts,60.0602764769956,
400,30,500,0,22,22,87,0.2525,-0.0044444444444444444,1,0,0,0.532007500063628,target,001,part3,2019_Jan_02_1701,fitts,60.0602764769956,
100,15,200,0,23,23,20,-0.1425,0.5244444444444445,1,0,0,0.748414299916476,target,001,part3,2019_Jan_02_1701,fitts,60.0602764769956,
300,60,200,0,24,24,34,-0.2625,0.32666666666666666,1,0,0,0.5487162999343127,target,001,part3,2019_Jan_02_1701,fitts,60.0602764769956,
100,60,300,0,25,25,52,-0.195,0.08888888888888889,1,0,0,0.6317455000244081,target,001,part3,2019_Jan_02_1701,fitts,60.0602764769956,
200,45,300,0,26,26,49,-0.1125,0.19333333333333333,1,0,0,0.6490807998925447,target,001,part3,2019_Jan_02_1701,fitts,60.0602764769956,
200,30,200,0,27,27,25,-0.16375,0.43555555555555553,1,0,0,0.5483532999642193,target,001,part3,2019_Jan_02_1701,fitts,60.0602764769956,
100,60,400,0,28,28,72,-0.12375,-0.10888888888888888,1,0,0,0.7484257000032812,target,001,part3,2019_Jan_02_1701,fitts,60.0602764769956,
400,45,100,0,29,29,11,-0.3,0.5066666666666667,1,0,0,0.4987455999944359,target,001,part3,2019_Jan_02_1701,fitts,60.0602764769956,
300,15,100,0,30,30,2,-0.25625,0.5511111111111111,1,0,0,0.48181749996729195,target,001,part3,2019_Jan_02_1701,fitts,60.0602764769956,
200,30,300,0,31,31,45,-0.055,0.32,1,0,0,0.6484154001809657,target,001,part3,2019_Jan_02_1701,fitts,60.0602764769956,
300,75,300,0,32,32,58,-0.2925,0.08888888888888889,1,0,0,0.5652717999182642,target,001,part3,2019_Jan_02_1701,fitts,60.0602764769956,
400,75,300,0,33,33,59,-0.2575,0.017777777777777778,1,0,0,0.46544459997676313,target,001,part3,2019_Jan_02_1701,fitts,60.0602764769956,
100,75,300,0,34,34,56,-0.285,0.017777777777777778,1,0,0,0.7317634001374245,target,001,part3,2019_Jan_02_1701,fitts,60.0602764769956,
400,60,500,0,35,35,95,-0.07,-0.31333333333333335,1,0,0,0.49896389991045,target,001,part3,2019_Jan_02_1701,fitts,60.0602764769956,
100,45,500,0,36,36,88,0.0575,-0.11555555555555555,1,0,0,0.7811947001609951,target,001,part3,2019_Jan_02_1701,fitts,60.0602764769956,
200,45,100,0,37,37,9,-0.29125,0.5133333333333333,1,0,0,0.6151700001209974,target,001,part3,2019_Jan_02_1701,fitts,60.0602764769956,
100,15,100,0,38,38,0,-0.24625,0.5822222222222222,1,0,0,0.598358100047335,target,001,part3,2019_Jan_02_1701,fitts,60.0602764769956,
200,45,400,0,39,39,69,-0.02375,0.017777777777777778,1,0,0,0.64838119992055,target,001,part3,2019_Jan_02_1701,fitts,60.0602764769956,
300,30,400,0,40,40,66,0.04,0.21777777777777776,1,0,0,0.5651049001608044,target,001,part3,2019_Jan_02_1701,fitts,60.0602764769956,
300,15,500,0,41,41,82,0.18875,0.35333333333333333,1,0,0,0.6658522998914123,target,001,part3,2019_Jan_02_1701,fitts,60.0602764769956,
100,75,100,0,42,42,16,-0.3425,0.4533333333333333,1,0,0,0.7815159999299794,target,001,part3,2019_Jan_02_1701,fitts,60.0602764769956,
100,75,500,0,43,43,96,-0.215,-0.41555555555555557,1,0,0,0.9142609001137316,target,001,part3,2019_Jan_02_1701,fitts,60.0602764769956,
300,30,100,0,44,44,6,-0.265,0.5577777777777778,1,0,0,0.46500279987230897,target,001,part3,2019_Jan_02_1701,fitts,60.0602764769956,
100,15,400,0,45,45,60,0.09375,0.4288888888888889,1,0,0,0.9305692999623716,target,001,part3,2019_Jan_02_1701,fitts,60.0602764769956,
100,60,100,0,46,46,12,-0.3175,0.48,1,0,0,0.5816417001187801,target,001,part3,2019_Jan_02_1701,fitts,60.0602764769956,
400,75,400,0,47,47,79,-0.26375,-0.09333333333333334,1,0,0,0.6312357001006603,target,001,part3,2019_Jan_02_1701,fitts,60.0602764769956,
300,45,100,0,48,48,10,-0.295,0.5133333333333333,1,0,0,0.5318360000383109,target,001,part3,2019_Jan_02_1701,fitts,60.0602764769956,
300,60,400,0,49,49,74,-0.14625,-0.07111111111111111,1,0,0,0.5152548998594284,target,001,part3,2019_Jan_02_1701,fitts,60.0602764769956,
200,45,200,0,50,50,29,-0.205,0.35777777777777775,1,0,0,0.7150536000262946,target,001,part3,2019_Jan_02_1701,fitts,60.0602764769956,
300,60,100,0,51,51,14,-0.305,0.4711111111111111,1,0,0,0.38221000018529594,target,001,part3,2019_Jan_02_1701,fitts,60.0602764769956,
300,30,200,0,52,52,26,-0.17375,0.44666666666666666,1,0,0,0.4988305000588298,target,001,part3,2019_Jan_02_1701,fitts,60.0602764769956,
400,75,200,0,53,53,39,-0.3125,0.3022222222222222,1,0,0,0.44807290006428957,target,001,part3,2019_Jan_02_1701,fitts,60.0602764769956,
400,30,300,0,54,54,47,-0.05125,0.32666666666666666,1,0,0,0.5325048000086099,target,001,part3,2019_Jan_02_1701,fitts,60.0602764769956,
100,45,400,0,55,55,68,-0.0225,0.042222222222222223,1,0,0,0.7470190001185983,target,001,part3,2019_Jan_02_1701,fitts,60.0602764769956,
400,45,500,0,56,56,91,0.07375,-0.15333333333333332,1,0,0,0.4986068999860436,target,001,part3,2019_Jan_02_1701,fitts,60.0602764769956,
300,75,400,0,57,57,78,-0.24375,-0.16444444444444445,1,0,0,0.6312955000903457,target,001,part3,2019_Jan_02_1701,fitts,60.0602764769956,
400,75,500,0,58,58,99,-0.22,-0.3422222222222222,1,0,0,0.6486152999568731,target,001,part3,2019_Jan_02_1701,fitts,60.0602764769956,
400,15,300,0,59,59,43,-0.0275,0.4888888888888889,1,0,0,0.5815328999888152,target,001,part3,2019_Jan_02_1701,fitts,60.0602764769956,
300,45,300,0,60,60,50,-0.1025,0.19555555555555557,1,0,0,0.44872889993712306,target,001,part3,2019_Jan_02_1701,fitts,60.0602764769956,
100,15,300,0,61,61,40,-0.02375,0.48444444444444446,1,0,0,0.7481176001019776,target,001,part3,2019_Jan_02_1701,fitts,60.0602764769956,
300,45,200,0,62,62,30,-0.2125,0.37555555555555553,1,0,0,0.4988525998778641,target,001,part3,2019_Jan_02_1701,fitts,60.0602764769956,
300,30,300,0,63,63,46,-0.045,0.3088888888888889,1,0,0,0.5319164998363703,target,001,part3,2019_Jan_02_1701,fitts,60.0602764769956,
100,30,200,0,64,64,24,-0.165,0.43333333333333335,1,0,0,0.4989848998375237,target,001,part3,2019_Jan_02_1701,fitts,60.0602764769956,
200,60,500,0,65,65,93,-0.08625,-0.3088888888888889,1,0,0,0.6651681999210268,target,001,part3,2019_Jan_02_1701,fitts,60.0602764769956,
400,75,100,0,66,66,19,-0.31125,0.4177777777777778,1,0,0,0.38169130007736385,target,001,part3,2019_Jan_02_1701,fitts,60.0602764769956,
300,15,400,0,67,67,62,0.1025,0.3977777777777778,1,0,0,0.5480129001662135,target,001,part3,2019_Jan_02_1701,fitts,60.0602764769956,
400,15,100,0,68,68,3,-0.29125,0.56,1,0,0,0.4316360999364406,target,001,part3,2019_Jan_02_1701,fitts,60.0602764769956,
400,15,400,0,69,69,63,0.09375,0.44666666666666666,1,0,0,0.6152665999252349,target,001,part3,2019_Jan_02_1701,fitts,60.0602764769956,
200,30,100,0,70,70,5,-0.28875,0.5288888888888889,1,0,0,0.4321877001784742,target,001,part3,2019_Jan_02_1701,fitts,60.0602764769956,
400,15,200,0,71,71,23,-0.19625,0.5533333333333333,1,0,0,0.431957800174132,target,001,part3,2019_Jan_02_1701,fitts,60.0602764769956,
100,30,300,0,72,72,44,-0.03625,0.3244444444444444,1,0,0,0.5653559998609126,target,001,part3,2019_Jan_02_1701,fitts,60.0602764769956,
400,45,400,0,73,73,71,-0.06375,0.09111111111111111,1,0,0,0.7649916000664234,target,001,part3,2019_Jan_02_1701,fitts,60.0602764769956,
200,60,200,0,74,74,33,-0.24625,0.3244444444444444,1,0,0,0.48204699996858835,target,001,part3,2019_Jan_02_1701,fitts,60.0602764769956,
400,15,500,0,75,75,83,0.18125,0.3888888888888889,1,0,0,0.6316885999403894,target,001,part3,2019_Jan_02_1701,fitts,60.0602764769956,
100,30,400,0,76,76,64,0.04,0.2288888888888889,1,0,0,0.7982922999653965,target,001,part3,2019_Jan_02_1701,fitts,60.0602764769956,
400,45,200,0,77,77,31,-0.19,0.3377777777777778,1,0,0,0.398907900089398,target,001,part3,2019_Jan_02_1701,fitts,60.0602764769956,
300,75,100,0,78,78,18,-0.36125,0.47333333333333333,1,0,0,0.49910570005886257,target,001,part3,2019_Jan_02_1701,fitts,60.0602764769956,
100,75,200,0,79,79,36,-0.30625,0.2511111111111111,1,0,0,0.5818751000333577,target,001,part3,2019_Jan_02_1701,fitts,60.0602764769956,
200,30,400,0,80,80,65,0.04875,0.20666666666666667,1,0,0,0.6316662000026554,target,001,part3,2019_Jan_02_1701,fitts,60.0602764769956,
200,15,400,0,81,81,61,0.09375,0.4177777777777778,1,0,0,0.697912700008601,target,001,part3,2019_Jan_02_1701,fitts,60.0602764769956,
400,60,300,0,82,82,55,-0.19,0.1111111111111111,1,0,0,0.5483653000555933,target,001,part3,2019_Jan_02_1701,fitts,60.0602764769956,
300,60,500,0,83,83,94,-0.08125,-0.24444444444444444,1,0,0,0.6150137998629361,target,001,part3,2019_Jan_02_1701,fitts,60.0602764769956,
400,60,200,0,84,84,35,-0.2525,0.24888888888888888,1,0,0,0.5485919998027384,target,001,part3,2019_Jan_02_1701,fitts,60.0602764769956,
200,60,400,0,85,85,73,-0.14,-0.09333333333333334,1,0,0,0.5486753999721259,target,001,part3,2019_Jan_02_1701,fitts,60.0602764769956,
100,45,300,0,86,86,48,-0.10875,0.18222222222222223,1,0,0,0.6326005000155419,target,001,part3,2019_Jan_02_1701,fitts,60.0602764769956,
100,15,500,0,87,87,80,0.23,0.37777777777777777,1,0,0,0.8480875000823289,target,001,part3,2019_Jan_02_1701,fitts,60.0602764769956,
300,45,500,0,88,88,90,0.06875,-0.14,1,0,0,0.6318365000188351,target,001,part3,2019_Jan_02_1701,fitts,60.0602764769956,
200,45,500,0,89,89,89,0.06375,-0.14888888888888888,1,0,0,0.5484680999070406,target,001,part3,2019_Jan_02_1701,fitts,60.0602764769956,
200,75,100,0,90,90,17,-0.3225,0.4022222222222222,1,0,0,0.7486165000591427,target,001,part3,2019_Jan_02_1701,fitts,60.0602764769956,
100,60,500,0,91,91,92,-0.06625,-0.30666666666666664,1,0,0,0.6984286000952125,target,001,part3,2019_Jan_02_1701,fitts,60.0602764769956,
200,30,500,0,92,92,85,0.14625,0.09555555555555556,1,0,0,0.648413399932906,target,001,part3,2019_Jan_02_1701,fitts,60.0602764769956,
200,60,100,0,93,93,13,-0.32625,0.5,1,0,0,0.5486371000297368,target,001,part3,2019_Jan_02_1701,fitts,60.0602764769956,
300,30,500,0,94,94,86,0.1025,0.1622222222222222,1,0,0,0.6653974999208003,target,001,part3,2019_Jan_02_1701,fitts,60.0602764769956,
200,75,400,0,95,95,77,-0.23,-0.19333333333333333,1,0,0,0.6983666999731213,target,001,part3,2019_Jan_02_1701,fitts,60.0602764769956,
200,15,200,0,96,96,21,-0.13625,0.5333333333333333,1,0,0,0.6151318000629544,target,001,part3,2019_Jan_02_1701,fitts,60.0602764769956,
300,15,200,0,97,97,22,-0.135,0.5,1,0,0,0.46462440001778305,target,001,part3,2019_Jan_02_1701,fitts,60.0602764769956,
200,75,200,0,98,98,37,-0.29375,0.24888888888888888,1,0,0,0.6980525001417845,target,001,part3,2019_Jan_02_1701,fitts,60.0602764769956,
400,45,300,0,99,99,51,-0.12625,0.21555555555555556,1,0,0,0.5153475000988692,target,001,part3,2019_Jan_02_1701,fitts,60.0602764769956,
400,30,300,1,0,100,47,-0.07125,0.30666666666666664,1,0,0,0.4982280998956412,target,001,part3,2019_Jan_02_1701,fitts,60.0602764769956,
100,15,500,1,1,101,80,0.22,0.35333333333333333,1,0,0,0.8648938999976963,target,001,part3,2019_Jan_02_1701,fitts,60.0602764769956,
200,60,300,1,2,102,53,-0.205,0.12222222222222222,1,0,0,0.9142226001713425,target,001,part3,2019_Jan_02_1701,fitts,60.0602764769956,
100,60,400,1,3,103,72,-0.12625,-0.11555555555555555,1,0,0,0.7645466001704335,target,001,part3,2019_Jan_02_1701,fitts,60.0602764769956,
300,30,200,1,4,104,26,-0.15625,0.4266666666666667,1,0,0,0.4816272999159992,target,001,part3,2019_Jan_02_1701,fitts,60.0602764769956,
200,15,500,1,5,105,81,0.22125,0.34,1,0,0,0.648504100041464,target,001,part3,2019_Jan_02_1701,fitts,60.0602764769956,
200,75,500,1,6,106,97,-0.2125,-0.4022222222222222,1,0,0,0.9147518000099808,target,001,part3,2019_Jan_02_1701,fitts,60.0602764769956,
100,60,500,1,7,107,92,-0.0625,-0.30444444444444446,1,0,0,0.8976479000411928,target,001,part3,2019_Jan_02_1701,fitts,60.0602764769956,
200,30,300,1,8,108,45,-0.035,0.2911111111111111,1,0,0,0.6813934000674635,target,001,part3,2019_Jan_02_1701,fitts,60.0602764769956,
100,60,200,1,9,109,32,-0.25375,0.29333333333333333,1,0,0,0.7157559001352638,target,001,part3,2019_Jan_02_1701,fitts,60.0602764769956,
400,60,500,1,10,110,95,-0.08375,-0.2311111111111111,1,0,0,0.5150357000529766,target,001,part3,2019_Jan_02_1701,fitts,60.0602764769956,
100,60,300,1,11,111,52,-0.18375,0.06888888888888889,1,0,0,0.7490294000599533,target,001,part3,2019_Jan_02_1701,fitts,60.0602764769956,
100,30,200,1,12,112,24,-0.175,0.43555555555555553,1,0,0,0.6651201001368463,target,001,part3,2019_Jan_02_1701,fitts,60.0602764769956,
400,75,400,1,13,113,79,-0.245,-0.12222222222222222,1,0,0,0.5490921000018716,target,001,part3,2019_Jan_02_1701,fitts,60.0602764769956,
100,45,100,1,14,114,8,-0.2775,0.5111111111111111,1,0,0,0.8649743001442403,target,001,part3,2019_Jan_02_1701,fitts,60.0602764769956,
300,60,200,1,15,115,34,-0.2575,0.29333333333333333,1,0,0,0.4652839999180287,target,001,part3,2019_Jan_02_1701,fitts,60.0602764769956,
200,45,500,1,16,116,89,0.09125,-0.13333333333333333,1,0,0,0.6834100000560284,target,001,part3,2019_Jan_02_1701,fitts,60.0602764769956,
300,45,500,1,17,117,90,0.04,-0.09777777777777778,1,0,0,0.547920900164172,target,001,part3,2019_Jan_02_1701,fitts,60.0602764769956,
400,15,100,1,18,118,3,-0.24625,0.5377777777777778,1,0,0,0.5493806998711079,target,001,part3,2019_Jan_02_1701,fitts,60.0602764769956,
400,75,200,1,19,119,39,-0.29125,0.28,1,0,0,0.5149170998483896,target,001,part3,2019_Jan_02_1701,fitts,60.0602764769956,
100,15,400,1,20,120,60,0.10625,0.41333333333333333,1,0,0,0.7155724000185728,target,001,part3,2019_Jan_02_1701,fitts,60.0602764769956,
300,60,100,1,21,121,14,-0.32375,0.5,1,0,0,0.5319115000311285,target,001,part3,2019_Jan_02_1701,fitts,60.0602764769956,
200,30,400,1,22,122,65,0.0675,0.20666666666666667,1,0,0,0.7484603000339121,target,001,part3,2019_Jan_02_1701,fitts,60.0602764769956,
300,15,400,1,23,123,62,0.09125,0.4088888888888889,1,0,0,0.6484683000016958,target,001,part3,2019_Jan_02_1701,fitts,60.0602764769956,
200,60,400,1,24,124,73,-0.1225,-0.12,1,0,0,0.7148226001299918,target,001,part3,2019_Jan_02_1701,fitts,60.0602764769956,
200,30,500,1,25,125,85,0.16375,0.09777777777777778,1,0,0,0.7314749001525342,target,001,part3,2019_Jan_02_1701,fitts,60.0602764769956,
100,30,400,1,26,126,64,0.055,0.21333333333333335,1,0,0,0.6651862000580877,target,001,part3,2019_Jan_02_1701,fitts,60.0602764769956,
300,60,300,1,27,127,54,-0.19625,0.10666666666666667,1,0,0,0.5652083000168204,target,001,part3,2019_Jan_02_1701,fitts,60.0602764769956,
300,30,300,1,28,128,46,-0.02125,0.31333333333333335,1,0,0,0.4816155000589788,target,001,part3,2019_Jan_02_1701,fitts,60.0602764769956,
300,30,500,1,29,129,86,0.17,0.09555555555555556,1,0,0,0.5318430999759585,target,001,part3,2019_Jan_02_1701,fitts,60.0602764769956,
200,30,100,1,30,130,5,-0.26,0.5133333333333333,1,0,0,0.8314869001042098,target,001,part3,2019_Jan_02_1701,fitts,60.0602764769956,
400,45,500,1,31,131,91,0.0525,-0.07555555555555556,1,0,0,0.5985981000121683,target,001,part3,2019_Jan_02_1701,fitts,60.0602764769956,
300,15,500,1,32,132,82,0.19875,0.37555555555555553,1,0,0,0.9316783000249416,target,001,part3,2019_Jan_02_1701,fitts,60.0602764769956,
400,45,200,1,33,133,31,-0.25125,0.35333333333333333,1,0,0,0.498498999979347,target,001,part3,2019_Jan_02_1701,fitts,60.0602764769956,
300,15,200,1,34,134,22,-0.1475,0.5311111111111111,1,0,0,0.5318545999471098,target,001,part3,2019_Jan_02_1701,fitts,60.0602764769956,
100,45,300,1,35,135,48,-0.11375,0.2,1,0,0,0.7651506999973208,target,001,part3,2019_Jan_02_1701,fitts,60.0602764769956,
300,60,400,1,36,136,74,-0.15125,-0.051111111111111114,1,0,0,0.7149701998569071,target,001,part3,2019_Jan_02_1701,fitts,60.0602764769956,
200,60,100,1,37,137,13,-0.29375,0.4622222222222222,1,0,0,0.5486371000297368,target,001,part3,2019_Jan_02_1701,fitts,60.0602764769956,
300,15,300,1,38,138,42,-0.01875,0.47555555555555556,1,0,0,0.5653256999794394,target,001,part3,2019_Jan_02_1701,fitts,60.0602764769956,
100,15,300,1,39,139,40,-0.01375,0.4866666666666667,1,0,0,0.8320381001103669,target,001,part3,2019_Jan_02_1701,fitts,60.0602764769956,
300,45,400,1,40,140,70,-0.025,0.06,1,0,0,0.6318009998649359,target,001,part3,2019_Jan_02_1701,fitts,60.0602764769956,
100,75,300,1,41,141,56,-0.27125,0.035555555555555556,1,0,0,0.6821355998981744,target,001,part3,2019_Jan_02_1701,fitts,60.0602764769956,
200,30,200,1,42,142,25,-0.15375,0.4066666666666667,1,0,0,0.5154858999885619,target,001,part3,2019_Jan_02_1701,fitts,60.0602764769956,
400,60,200,1,43,143,35,-0.22875,0.3488888888888889,1,0,0,0.465410599950701,target,001,part3,2019_Jan_02_1701,fitts,60.0602764769956,
300,75,400,1,44,144,78,-0.24125,-0.14888888888888888,1,0,0,0.6483352000359446,target,001,part3,2019_Jan_02_1701,fitts,60.0602764769956,
400,30,200,1,45,145,27,-0.19,0.41333333333333333,1,0,0,0.5320870999712497,target,001,part3,2019_Jan_02_1701,fitts,60.0602764769956,
300,45,100,1,46,146,10,-0.2425,0.4666666666666667,1,0,0,0.3659652001224458,target,001,part3,2019_Jan_02_1701,fitts,60.0602764769956,
200,75,400,1,47,147,77,-0.24875,-0.1688888888888889,1,0,0,0.798209099797532,target,001,part3,2019_Jan_02_1701,fitts,60.0602764769956,
400,75,300,1,48,148,59,-0.22375,-0.0022222222222222222,1,0,0,0.44910420011729,target,001,part3,2019_Jan_02_1701,fitts,60.0602764769956,
200,75,200,1,49,149,37,-0.32625,0.2288888888888889,1,0,0,0.5652953002136201,target,001,part3,2019_Jan_02_1701,fitts,60.0602764769956,
300,75,200,1,50,150,38,-0.29375,0.27111111111111114,1,0,0,0.4155687000602484,target,001,part3,2019_Jan_02_1701,fitts,60.0602764769956,
200,60,200,1,51,151,33,-0.2125,0.24222222222222223,1,0,0,0.4987590000964701,target,001,part3,2019_Jan_02_1701,fitts,60.0602764769956,
100,75,500,1,52,152,96,-0.22625,-0.40444444444444444,1,0,0,0.7483560999389738,target,001,part3,2019_Jan_02_1701,fitts,60.0602764769956,
200,45,300,1,53,153,49,-0.14125,0.2,1,0,0,0.5817066999152303,target,001,part3,2019_Jan_02_1701,fitts,60.0602764769956,
300,45,200,1,54,154,30,-0.21875,0.35777777777777775,1,0,0,0.4651324001606554,target,001,part3,2019_Jan_02_1701,fitts,60.0602764769956,
200,45,100,1,55,155,9,-0.2875,0.4955555555555556,1,0,0,0.5488296998664737,target,001,part3,2019_Jan_02_1701,fitts,60.0602764769956,
400,60,300,1,56,156,55,-0.1975,0.15333333333333332,1,0,0,0.4489395001437515,target,001,part3,2019_Jan_02_1701,fitts,60.0602764769956,
400,75,100,1,57,157,19,-0.31,0.40444444444444444,1,0,0,0.4153128999751061,target,001,part3,2019_Jan_02_1701,fitts,60.0602764769956,
300,75,500,1,58,158,98,-0.24875,-0.36666666666666664,1,0,0,0.648471700027585,target,001,part3,2019_Jan_02_1701,fitts,60.0602764769956,
400,15,300,1,59,159,43,-0.0425,0.5177777777777778,1,0,0,0.614960900042206,target,001,part3,2019_Jan_02_1701,fitts,60.0602764769956,
400,30,500,1,60,160,87,0.1075,0.17777777777777778,1,0,0,0.6321072999853641,target,001,part3,2019_Jan_02_1701,fitts,60.0602764769956,
400,60,400,1,61,161,75,-0.15125,-0.017777777777777778,1,0,0,0.5656423000618815,target,001,part3,2019_Jan_02_1701,fitts,60.0602764769956,
100,45,400,1,62,162,68,-0.01625,0.024444444444444446,1,0,0,0.6477703000418842,target,001,part3,2019_Jan_02_1701,fitts,60.0602764769956,
400,45,400,1,63,163,71,-0.06375,0.1288888888888889,1,0,0,0.6316249999217689,target,001,part3,2019_Jan_02_1701,fitts,60.0602764769956,
400,30,100,1,64,164,7,-0.29,0.5266666666666666,1,0,0,0.5155125998426229,target,001,part3,2019_Jan_02_1701,fitts,60.0602764769956,
100,45,500,1,65,165,88,0.0825,-0.14666666666666667,1,0,0,0.7153769999276847,target,001,part3,2019_Jan_02_1701,fitts,60.0602764769956,
100,75,400,1,66,166,76,-0.24125,-0.22666666666666666,1,0,0,0.7149114001076669,target,001,part3,2019_Jan_02_1701,fitts,60.0602764769956,
300,75,300,1,67,167,58,-0.255,0.035555555555555556,1,0,0,0.49869709997437894,target,001,part3,2019_Jan_02_1701,fitts,60.0602764769956,
400,15,200,1,68,168,23,-0.18625,0.5022222222222222,1,0,0,0.9479940000455827,target,001,part3,2019_Jan_02_1701,fitts,60.0602764769956,
300,30,100,1,69,169,6,-0.2825,0.5444444444444444,1,0,0,0.5479627000167966,target,001,part3,2019_Jan_02_1701,fitts,60.0602764769956,
400,15,400,1,70,170,63,0.07375,0.4066666666666667,1,0,0,0.5647631001193076,target,001,part3,2019_Jan_02_1701,fitts,60.0602764769956,
200,15,100,1,71,171,1,-0.28,0.5822222222222222,1,0,0,0.665080799954012,target,001,part3,2019_Jan_02_1701,fitts,60.0602764769956,
200,15,200,1,72,172,21,-0.16375,0.5266666666666666,1,0,0,0.565593000035733,target,001,part3,2019_Jan_02_1701,fitts,60.0602764769956,
200,15,300,1,73,173,41,0.04375,0.4688888888888889,1,0,0,0.6317237000912428,target,001,part3,2019_Jan_02_1701,fitts,60.0602764769956,
300,45,300,1,74,174,50,-0.09625,0.24222222222222223,1,0,0,0.53197310003452,target,001,part3,2019_Jan_02_1701,fitts,60.0602764769956,
200,15,400,1,75,175,61,0.11875,0.4266666666666667,1,0,0,0.5822145000565797,target,001,part3,2019_Jan_02_1701,fitts,60.0602764769956,
100,30,500,1,76,176,84,0.15625,0.1111111111111111,1,0,0,0.6815579000394791,target,001,part3,2019_Jan_02_1701,fitts,60.0602764769956,
400,15,500,1,77,177,83,0.19875,0.38,1,0,0,0.5323013998568058,target,001,part3,2019_Jan_02_1701,fitts,60.0602764769956,
100,45,200,1,78,178,28,-0.20375,0.3511111111111111,1,0,0,0.6814275998622179,target,001,part3,2019_Jan_02_1701,fitts,60.0602764769956,
400,45,300,1,79,179,51,-0.1,0.21555555555555556,1,0,0,0.5655374999623746,target,001,part3,2019_Jan_02_1701,fitts,60.0602764769956,
300,30,400,1,80,180,66,0.06625,0.22666666666666666,1,0,0,0.4820276000536978,target,001,part3,2019_Jan_02_1701,fitts,60.0602764769956,
200,45,400,1,81,181,69,-0.03125,0.07555555555555556,1,0,0,0.5484494001138955,target,001,part3,2019_Jan_02_1701,fitts,60.0602764769956,
100,15,200,1,82,182,20,-0.14875,0.5311111111111111,1,0,0,0.6314330999739468,target,001,part3,2019_Jan_02_1701,fitts,60.0602764769956,
100,30,300,1,83,183,44,-0.02875,0.32222222222222224,1,0,0,0.7986206999048591,target,001,part3,2019_Jan_02_1701,fitts,60.0602764769956,
200,45,200,1,84,184,29,-0.19875,0.36,1,0,0,0.6143181000370532,target,001,part3,2019_Jan_02_1701,fitts,60.0602764769956,
100,60,100,1,85,185,12,-0.31,0.45555555555555555,1,0,0,0.6656371001154184,target,001,part3,2019_Jan_02_1701,fitts,60.0602764769956,
300,60,500,1,86,186,94,-0.07,-0.28,1,0,0,0.6818742000032216,target,001,part3,2019_Jan_02_1701,fitts,60.0602764769956,
300,15,100,1,87,187,2,-0.25875,0.6222222222222222,1,0,0,0.49855969985947013,target,001,part3,2019_Jan_02_1701,fitts,60.0602764769956,
300,75,100,1,88,188,18,-0.31875,0.4488888888888889,1,0,0,0.49861519993282855,target,001,part3,2019_Jan_02_1701,fitts,60.0602764769956,
100,75,200,1,89,189,36,-0.30375,0.2288888888888889,1,0,0,0.7151021999306977,target,001,part3,2019_Jan_02_1701,fitts,60.0602764769956,
400,75,500,1,90,190,99,-0.26875,-0.34,1,0,0,0.6981129001360387,target,001,part3,2019_Jan_02_1701,fitts,60.0602764769956,
400,45,100,1,91,191,11,-0.2975,0.5355555555555556,1,0,0,0.4818329999689013,target,001,part3,2019_Jan_02_1701,fitts,60.0602764769956,
100,15,100,1,92,192,0,-0.2475,0.5955555555555555,1,0,0,0.5981902999337763,target,001,part3,2019_Jan_02_1701,fitts,60.0602764769956,
200,75,300,1,93,193,57,-0.2875,0.04,1,0,0,0.6321005001664162,target,001,part3,2019_Jan_02_1701,fitts,60.0602764769956,
400,60,100,1,94,194,15,-0.29375,0.4488888888888889,1,0,0,0.43135529989376664,target,001,part3,2019_Jan_02_1701,fitts,60.0602764769956,
200,75,100,1,95,195,17,-0.33,0.45111111111111113,1,0,0,0.5481891001109034,target,001,part3,2019_Jan_02_1701,fitts,60.0602764769956,
200,60,500,1,96,196,93,-0.07875,-0.28,1,0,0,0.8481691000051796,target,001,part3,2019_Jan_02_1701,fitts,60.0602764769956,
100,75,100,1,97,197,16,-0.345,0.4688888888888889,1,0,0,0.7649449000600725,target,001,part3,2019_Jan_02_1701,fitts,60.0602764769956,
100,30,100,1,98,198,4,-0.27875,0.5355555555555556,1,0,0,0.582191800000146,target,001,part3,2019_Jan_02_1701,fitts,60.0602764769956,
400,30,400,1,99,199,67,0.04875,0.2222222222222222,1,0,0,0.49840739998035133,target,001,part3,2019_Jan_02_1701,fitts,60.0602764769956,
300,60,400,2,0,200,74,-0.1325,-0.07333333333333333,1,0,0,0.5817911999765784,target,001,part3,2019_Jan_02_1701,fitts,60.0602764769956,
200,60,500,2,1,201,93,-0.0725,-0.27111111111111114,1,0,0,0.9312815999146551,target,001,part3,2019_Jan_02_1701,fitts,60.0602764769956,
300,75,400,2,2,202,78,-0.24625,-0.20444444444444446,1,0,0,0.6319371999707073,target,001,part3,2019_Jan_02_1701,fitts,60.0602764769956,
400,60,400,2,3,203,75,-0.13125,-0.1,1,0,0,0.4656098000705242,target,001,part3,2019_Jan_02_1701,fitts,60.0602764769956,
300,45,100,2,4,204,10,-0.2825,0.5066666666666667,1,0,0,0.5486804998945445,target,001,part3,2019_Jan_02_1701,fitts,60.0602764769956,
200,75,200,2,5,205,37,-0.30125,0.24888888888888888,1,0,0,0.6149196999613196,target,001,part3,2019_Jan_02_1701,fitts,60.0602764769956,
300,15,400,2,6,206,62,0.15125,0.4488888888888889,1,0,0,0.5653635999187827,target,001,part3,2019_Jan_02_1701,fitts,60.0602764769956,
300,60,500,2,7,207,94,-0.09625,-0.26222222222222225,1,0,0,0.5815963998902589,target,001,part3,2019_Jan_02_1701,fitts,60.0602764769956,
400,15,400,2,8,208,63,0.05625,0.43555555555555553,1,0,0,0.6485741001088172,target,001,part3,2019_Jan_02_1701,fitts,60.0602764769956,
300,15,200,2,9,209,22,-0.17625,0.54,1,0,0,0.4655619999393821,target,001,part3,2019_Jan_02_1701,fitts,60.0602764769956,
200,45,100,2,10,210,9,-0.295,0.4911111111111111,1,0,0,0.6149836999829859,target,001,part3,2019_Jan_02_1701,fitts,60.0602764769956,
400,75,500,2,11,211,99,-0.22375,-0.41333333333333333,1,0,0,0.6320215999148786,target,001,part3,2019_Jan_02_1701,fitts,60.0602764769956,
300,75,300,2,12,212,58,-0.27875,-0.02666666666666667,1,0,0,0.5153608999680728,target,001,part3,2019_Jan_02_1701,fitts,60.0602764769956,
100,15,300,2,13,213,40,0.0,0.5022222222222222,1,0,0,0.6316630998626351,target,001,part3,2019_Jan_02_1701,fitts,60.0602764769956,
300,30,500,2,14,214,86,0.15125,0.12222222222222222,1,0,0,0.6646895001176745,target,001,part3,2019_Jan_02_1701,fitts,60.0602764769956,
100,15,400,2,15,215,60,0.10625,0.43333333333333335,1,0,0,0.6150659001432359,target,001,part3,2019_Jan_02_1701,fitts,60.0602764769956,
100,30,200,2,16,216,24,-0.15875,0.46,1,0,0,0.5322209000587463,target,001,part3,2019_Jan_02_1701,fitts,60.0602764769956,
100,75,200,2,17,217,36,-0.3025,0.23333333333333334,1,0,0,0.648376600118354,target,001,part3,2019_Jan_02_1701,fitts,60.0602764769956,
400,75,100,2,18,218,19,-0.32875,0.4288888888888889,1,0,0,0.565615699859336,target,001,part3,2019_Jan_02_1701,fitts,60.0602764769956,
400,15,300,2,19,219,43,-0.0325,0.5044444444444445,1,0,0,0.6308257000055164,target,001,part3,2019_Jan_02_1701,fitts,60.0602764769956,
400,15,100,2,20,220,3,-0.2625,0.5511111111111111,1,0,0,0.4316231000702828,target,001,part3,2019_Jan_02_1701,fitts,60.0602764769956,
300,60,100,2,21,221,14,-0.2575,0.4777777777777778,1,0,0,0.3659060001373291,target,001,part3,2019_Jan_02_1701,fitts,60.0602764769956,
400,30,100,2,22,222,7,-0.27875,0.5244444444444445,1,0,0,0.36550320009700954,target,001,part3,2019_Jan_02_1701,fitts,60.0602764769956,
100,30,500,2,23,223,84,0.1725,0.11555555555555555,1,0,0,0.7819302999414504,target,001,part3,2019_Jan_02_1701,fitts,60.0602764769956,
400,45,400,2,24,224,71,-0.07375,0.12,1,0,0,0.581583600025624,target,001,part3,2019_Jan_02_1701,fitts,60.0602764769956,
100,45,500,2,25,225,88,0.07625,-0.11777777777777777,1,0,0,0.7647524001076818,target,001,part3,2019_Jan_02_1701,fitts,60.0602764769956,
100,60,200,2,26,226,32,-0.24,0.2777777777777778,1,0,0,0.6650370999705046,target,001,part3,2019_Jan_02_1701,fitts,60.0602764769956,
200,15,200,2,27,227,21,-0.13625,0.5511111111111111,1,0,0,0.5319451000541449,target,001,part3,2019_Jan_02_1701,fitts,60.0602764769956,
100,60,500,2,28,228,92,-0.07,-0.2822222222222222,1,0,0,1.2809274999890476,target,001,part3,2019_Jan_02_1701,fitts,60.0602764769956,
400,45,100,2,29,229,11,-0.2975,0.5311111111111111,1,0,0,0.3485390997957438,target,001,part3,2019_Jan_02_1701,fitts,60.0602764769956,
300,60,200,2,30,230,34,-0.255,0.3,1,0,0,0.44866949995048344,target,001,part3,2019_Jan_02_1701,fitts,60.0602764769956,
100,15,500,2,31,231,80,0.2325,0.37333333333333335,1,0,0,1.197649700101465,target,001,part3,2019_Jan_02_1701,fitts,60.0602764769956,
200,30,200,2,32,232,25,-0.1525,0.44,1,0,0,0.6487175000365824,target,001,part3,2019_Jan_02_1701,fitts,60.0602764769956,
200,45,500,2,33,233,89,0.06125,-0.12444444444444444,1,0,0,0.7478114999830723,target,001,part3,2019_Jan_02_1701,fitts,60.0602764769956,
400,15,200,2,34,234,23,-0.15625,0.5266666666666666,1,0,0,0.49847860005684197,target,001,part3,2019_Jan_02_1701,fitts,60.0602764769956,
400,75,200,2,35,235,39,-0.2675,0.29333333333333333,1,0,0,0.3987692999653518,target,001,part3,2019_Jan_02_1701,fitts,60.0602764769956,
400,45,200,2,36,236,31,-0.14625,0.3288888888888889,1,0,0,0.46514629991725087,target,001,part3,2019_Jan_02_1701,fitts,60.0602764769956,
200,75,500,2,37,237,97,-0.21,-0.4066666666666667,1,0,0,0.7145071001723409,target,001,part3,2019_Jan_02_1701,fitts,60.0602764769956,
100,45,200,2,38,238,28,-0.20125,0.3466666666666667,1,0,0,0.5649151999969035,target,001,part3,2019_Jan_02_1701,fitts,60.0602764769956,
200,45,300,2,39,239,49,-0.12375,0.2,1,0,0,0.6149570001289248,target,001,part3,2019_Jan_02_1701,fitts,60.0602764769956,
200,60,100,2,40,240,13,-0.33875,0.5155555555555555,1,0,0,0.49917239998467267,target,001,part3,2019_Jan_02_1701,fitts,60.0602764769956,
100,30,100,2,41,241,4,-0.26625,0.5533333333333333,1,0,0,0.5152445998974144,target,001,part3,2019_Jan_02_1701,fitts,60.0602764769956,
300,45,400,2,42,242,70,-0.06,0.04888888888888889,1,0,0,0.5322158001363277,target,001,part3,2019_Jan_02_1701,fitts,60.0602764769956,
300,45,500,2,43,243,90,0.045,-0.09555555555555556,1,0,0,0.7152100999373943,target,001,part3,2019_Jan_02_1701,fitts,60.0602764769956,
100,60,100,2,44,244,12,-0.3275,0.4777777777777778,1,0,0,0.6642152999993414,target,001,part3,2019_Jan_02_1701,fitts,60.0602764769956,
200,60,300,2,45,245,53,-0.205,0.07333333333333333,1,0,0,0.6138300001621246,target,001,part3,2019_Jan_02_1701,fitts,60.0602764769956,
300,75,100,2,46,246,18,-0.37,0.4911111111111111,1,0,0,0.46527499984949827,target,001,part3,2019_Jan_02_1701,fitts,60.0602764769956,
200,60,400,2,47,247,73,-0.13,-0.12222222222222222,1,0,0,0.6318502000067383,target,001,part3,2019_Jan_02_1701,fitts,60.0602764769956,
200,45,200,2,48,248,29,-0.25875,0.36,1,0,0,0.6812962000258267,target,001,part3,2019_Jan_02_1701,fitts,60.0602764769956,
400,30,400,2,49,249,67,0.0525,0.2644444444444444,1,0,0,0.5152378000784665,target,001,part3,2019_Jan_02_1701,fitts,60.0602764769956,
100,15,100,2,50,250,0,-0.24625,0.5866666666666667,1,0,0,0.6316074000205845,target,001,part3,2019_Jan_02_1701,fitts,60.0602764769956,
100,45,100,2,51,251,8,-0.2825,0.5177777777777778,1,0,0,0.4985097001772374,target,001,part3,2019_Jan_02_1701,fitts,60.0602764769956,
100,75,500,2,52,252,96,-0.21375,-0.4288888888888889,1,0,0,0.7153014000505209,target,001,part3,2019_Jan_02_1701,fitts,60.0602764769956,
400,30,200,2,53,253,27,-0.21875,0.5044444444444445,1,0,0,0.4317890000529587,target,001,part3,2019_Jan_02_1701,fitts,60.0602764769956,
200,15,300,2,54,254,41,-0.01125,0.4866666666666667,1,0,0,0.5648936000652611,target,001,part3,2019_Jan_02_1701,fitts,60.0602764769956,
300,75,200,2,55,255,38,-0.26,0.22444444444444445,1,0,0,0.48189619998447597,target,001,part3,2019_Jan_02_1701,fitts,60.0602764769956,
400,60,100,2,56,256,15,-0.295,0.4444444444444444,1,0,0,0.39876979985274374,target,001,part3,2019_Jan_02_1701,fitts,60.0602764769956,
300,15,300,2,57,257,42,-0.0225,0.4688888888888889,1,0,0,0.4818484999705106,target,001,part3,2019_Jan_02_1701,fitts,60.0602764769956,
200,30,300,2,58,258,45,-0.06,0.34444444444444444,1,0,0,0.6156212000641972,target,001,part3,2019_Jan_02_1701,fitts,60.0602764769956,
400,30,300,2,59,259,47,-0.05125,0.37555555555555553,1,0,0,0.4487783999647945,target,001,part3,2019_Jan_02_1701,fitts,60.0602764769956,
200,15,400,2,60,260,61,0.05625,0.38666666666666666,1,0,0,0.6153182999696583,target,001,part3,2019_Jan_02_1701,fitts,60.0602764769956,
100,45,400,2,61,261,68,-0.03125,0.011111111111111112,1,0,0,0.7318500999826938,target,001,part3,2019_Jan_02_1701,fitts,60.0602764769956,
300,30,200,2,62,262,26,-0.18625,0.46,1,0,0,0.46533120004460216,target,001,part3,2019_Jan_02_1701,fitts,60.0602764769956,
100,45,300,2,63,263,48,-0.115,0.18,1,0,0,0.5987478999886662,target,001,part3,2019_Jan_02_1701,fitts,60.0602764769956,
100,75,400,2,64,264,76,-0.235,-0.17777777777777778,1,0,0,0.6146220001392066,target,001,part3,2019_Jan_02_1701,fitts,60.0602764769956,
200,15,500,2,65,265,81,0.2275,0.3622222222222222,1,0,0,0.681359900161624,target,001,part3,2019_Jan_02_1701,fitts,60.0602764769956,
200,75,300,2,66,266,57,-0.27875,0.042222222222222223,1,0,0,0.6651093999389559,target,001,part3,2019_Jan_02_1701,fitts,60.0602764769956,
100,75,100,2,67,267,16,-0.355,0.4533333333333333,1,0,0,0.6481326001230627,target,001,part3,2019_Jan_02_1701,fitts,60.0602764769956,
400,60,500,2,68,268,95,-0.09125,-0.29555555555555557,1,0,0,0.6484152998309582,target,001,part3,2019_Jan_02_1701,fitts,60.0602764769956,
400,15,500,2,69,269,83,0.3175,0.44222222222222224,1,0,0,0.6487808001693338,target,001,part3,2019_Jan_02_1701,fitts,60.0602764769956,
300,30,300,2,70,270,46,-0.06,0.37333333333333335,1,0,0,0.6320563999470323,target,001,part3,2019_Jan_02_1701,fitts,60.0602764769956,
200,75,100,2,71,271,17,-0.36375,0.43555555555555553,1,0,0,0.5316518000327051,target,001,part3,2019_Jan_02_1701,fitts,60.0602764769956,
200,15,100,2,72,272,1,-0.27,0.5755555555555556,1,0,0,0.5153630999848247,target,001,part3,2019_Jan_02_1701,fitts,60.0602764769956,
400,60,200,2,73,273,35,-0.27125,0.3377777777777778,1,0,0,0.4150551001075655,target,001,part3,2019_Jan_02_1701,fitts,60.0602764769956,
100,75,300,2,74,274,56,-0.28,0.006666666666666667,1,0,0,0.7313491001259536,target,001,part3,2019_Jan_02_1701,fitts,60.0602764769956,
200,75,400,2,75,275,77,-0.26625,-0.1622222222222222,1,0,0,0.6816787999123335,target,001,part3,2019_Jan_02_1701,fitts,60.0602764769956,
200,30,400,2,76,276,65,0.07375,0.2288888888888889,1,0,0,0.6485514999367297,target,001,part3,2019_Jan_02_1701,fitts,60.0602764769956,
400,60,300,2,77,277,55,-0.21125,0.05555555555555555,1,0,0,0.6984081000555307,target,001,part3,2019_Jan_02_1701,fitts,60.0602764769956,
400,75,300,2,78,278,59,-0.2725,0.0044444444444444444,1,0,0,0.5665456999558955,target,001,part3,2019_Jan_02_1701,fitts,60.0602764769956,
300,30,400,2,79,279,66,0.12,0.21333333333333335,1,0,0,0.5484974000137299,target,001,part3,2019_Jan_02_1701,fitts,60.0602764769956,
300,15,500,2,80,280,82,0.24,0.4066666666666667,1,0,0,0.5820557998958975,target,001,part3,2019_Jan_02_1701,fitts,60.0602764769956,
300,75,500,2,81,281,98,-0.2275,-0.36,1,0,0,0.6981055999640375,target,001,part3,2019_Jan_02_1701,fitts,60.0602764769956,
400,45,500,2,82,282,91,0.015,-0.07555555555555556,1,0,0,0.7151227002032101,target,001,part3,2019_Jan_02_1701,fitts,60.0602764769956,
400,75,400,2,83,283,79,-0.2425,-0.11777777777777777,1,0,0,0.5306784000713378,target,001,part3,2019_Jan_02_1701,fitts,60.0602764769956,
300,45,300,2,84,284,50,-0.1075,0.16666666666666666,1,0,0,0.5490443001035601,target,001,part3,2019_Jan_02_1701,fitts,60.0602764769956,
400,45,300,2,85,285,51,-0.095,0.12444444444444444,1,0,0,0.4488069999497384,target,001,part3,2019_Jan_02_1701,fitts,60.0602764769956,
100,60,400,2,86,286,72,-0.12375,-0.13111111111111112,1,0,0,0.6484807999804616,target,001,part3,2019_Jan_02_1701,fitts,60.0602764769956,
400,30,500,2,87,287,87,0.155,0.1288888888888889,1,0,0,0.5827590001281351,target,001,part3,2019_Jan_02_1701,fitts,60.0602764769956,
200,30,100,2,88,288,5,-0.28875,0.5533333333333333,1,0,0,0.49853069987148046,target,001,part3,2019_Jan_02_1701,fitts,60.0602764769956,
300,15,100,2,89,289,2,-0.27125,0.5844444444444444,1,0,0,0.41579439979977906,target,001,part3,2019_Jan_02_1701,fitts,60.0602764769956,
100,60,300,2,90,290,52,-0.18375,0.07333333333333333,1,0,0,0.6491878000088036,target,001,part3,2019_Jan_02_1701,fitts,60.0602764769956,
300,30,100,2,91,291,6,-0.29875,0.58,1,0,0,0.4659888001624495,target,001,part3,2019_Jan_02_1701,fitts,60.0602764769956,
200,60,200,2,92,292,33,-0.2425,0.2688888888888889,1,0,0,0.4635928999632597,target,001,part3,2019_Jan_02_1701,fitts,60.0602764769956,
200,45,400,2,93,293,69,-0.05,0.044444444444444446,1,0,0,0.6488805001135916,target,001,part3,2019_Jan_02_1701,fitts,60.0602764769956,
100,30,400,2,94,294,64,0.06375,0.2088888888888889,1,0,0,0.7486038999632001,target,001,part3,2019_Jan_02_1701,fitts,60.0602764769956,
300,45,200,2,95,295,30,-0.19375,0.34444444444444444,1,0,0,0.41541529982350767,target,001,part3,2019_Jan_02_1701,fitts,60.0602764769956,
100,30,300,2,96,296,44,-0.06875,0.3288888888888889,1,0,0,0.7486348000820726,target,001,part3,2019_Jan_02_1701,fitts,60.0602764769956,
300,60,300,2,97,297,54,-0.1675,0.14666666666666667,1,0,0,0.41622320003807545,target,001,part3,2019_Jan_02_1701,fitts,60.0602764769956,
200,30,500,2,98,298,85,0.1725,0.12444444444444444,1,0,0,0.6152745001018047,target,001,part3,2019_Jan_02_1701,fitts,60.0602764769956,
100,15,200,2,99,299,20,-0.13625,0.5555555555555556,1,0,0,0.6647282000631094,target,001,part3,2019_Jan_02_1701,fitts,60.0602764769956,
100,45,400,3,0,300,68,-0.02625,0.03111111111111111,1,0,0,0.5485168001614511,target,001,part3,2019_Jan_02_1701,fitts,60.0602764769956,
400,75,100,3,1,301,19,-0.3725,0.44222222222222224,1,0,0,0.5159430999774486,target,001,part3,2019_Jan_02_1701,fitts,60.0602764769956,
400,30,100,3,2,302,7,-0.285,0.5022222222222222,1,0,0,0.4170252999756485,target,001,part3,2019_Jan_02_1701,fitts,60.0602764769956,
200,60,300,3,3,303,53,-0.21125,0.1288888888888889,1,0,0,0.5320146000012755,target,001,part3,2019_Jan_02_1701,fitts,60.0602764769956,
400,15,100,3,4,304,3,-0.27,0.6066666666666667,1,0,0,0.4317554999142885,target,001,part3,2019_Jan_02_1701,fitts,60.0602764769956,
100,75,300,3,5,305,56,-0.28125,0.008888888888888889,1,0,0,0.5814886998850852,target,001,part3,2019_Jan_02_1701,fitts,60.0602764769956,
300,45,200,3,6,306,30,-0.19625,0.37777777777777777,1,0,0,0.4319873999338597,target,001,part3,2019_Jan_02_1701,fitts,60.0602764769956,
300,30,100,3,7,307,6,-0.26,0.5355555555555556,1,0,0,0.4823529999703169,target,001,part3,2019_Jan_02_1701,fitts,60.0602764769956,
200,30,200,3,8,308,25,-0.155,0.4444444444444444,1,0,0,0.5152278998866677,target,001,part3,2019_Jan_02_1701,fitts,60.0602764769956,
200,75,500,3,9,309,97,-0.22,-0.3977777777777778,1,0,0,0.7320759000722319,target,001,part3,2019_Jan_02_1701,fitts,60.0602764769956,
200,45,200,3,10,310,29,-0.20375,0.3377777777777778,1,0,0,0.4982658999506384,target,001,part3,2019_Jan_02_1701,fitts,60.0602764769956,
400,15,400,3,11,311,63,0.0675,0.38666666666666666,1,0,0,0.5452697000000626,target,001,part3,2019_Jan_02_1701,fitts,60.0602764769956,
100,45,300,3,12,312,48,-0.11,0.17777777777777778,1,0,0,0.7487574999686331,target,001,part3,2019_Jan_02_1701,fitts,60.0602764769956,
200,15,500,3,13,313,81,0.225,0.3933333333333333,1,0,0,0.5980424999725074,target,001,part3,2019_Jan_02_1701,fitts,60.0602764769956,
400,75,300,3,14,314,59,-0.26125,0.042222222222222223,1,0,0,0.43171999999321997,target,001,part3,2019_Jan_02_1701,fitts,60.0602764769956,
300,15,200,3,15,315,22,-0.14875,0.4688888888888889,1,0,0,0.5484716999344528,target,001,part3,2019_Jan_02_1701,fitts,60.0602764769956,
300,45,400,3,16,316,70,-0.05125,0.08222222222222222,1,0,0,0.5156062999740243,target,001,part3,2019_Jan_02_1701,fitts,60.0602764769956,
100,75,100,3,17,317,16,-0.34625,0.4666666666666667,1,0,0,0.5657143001444638,target,001,part3,2019_Jan_02_1701,fitts,60.0602764769956,
100,60,500,3,18,318,92,-0.05625,-0.30666666666666664,1,0,0,0.7647472999524325,target,001,part3,2019_Jan_02_1701,fitts,60.0602764769956,
200,15,100,3,19,319,1,-0.25125,0.58,1,0,0,0.5152756001334637,target,001,part3,2019_Jan_02_1701,fitts,60.0602764769956,
200,15,400,3,20,320,61,0.11625,0.46,1,0,0,0.5814107998739928,target,001,part3,2019_Jan_02_1701,fitts,60.0602764769956,
200,30,300,3,21,321,45,-0.04,0.3511111111111111,1,0,0,0.48212780011817813,target,001,part3,2019_Jan_02_1701,fitts,60.0602764769956,
100,15,100,3,22,322,0,-0.24375,0.6066666666666667,1,0,0,0.9481176000554115,target,001,part3,2019_Jan_02_1701,fitts,60.0602764769956,
300,15,500,3,23,323,82,0.21125,0.4222222222222222,1,0,0,0.5495865000411868,target,001,part3,2019_Jan_02_1701,fitts,60.0602764769956,
400,45,200,3,24,324,31,-0.2125,0.3933333333333333,1,0,0,0.34923060005530715,target,001,part3,2019_Jan_02_1701,fitts,60.0602764769956,
400,45,500,3,25,325,91,0.0525,-0.08444444444444445,1,0,0,0.49904400017112494,target,001,part3,2019_Jan_02_1701,fitts,60.0602764769956,
400,75,400,3,26,326,79,-0.2375,-0.24444444444444444,1,0,0,0.548717400059104,target,001,part3,2019_Jan_02_1701,fitts,60.0602764769956,
400,60,400,3,27,327,75,-0.17875,-0.051111111111111114,1,0,0,0.4822938002180308,target,001,part3,2019_Jan_02_1701,fitts,60.0602764769956,
400,60,300,3,28,328,55,-0.23375,0.12222222222222222,1,0,0,0.3987370999529958,target,001,part3,2019_Jan_02_1701,fitts,60.0602764769956,
200,45,100,3,29,329,9,-0.305,0.5111111111111111,1,0,0,0.4979723000433296,target,001,part3,2019_Jan_02_1701,fitts,60.0602764769956,
400,15,200,3,30,330,23,-0.1825,0.5266666666666666,1,0,0,0.4476339998655021,target,001,part3,2019_Jan_02_1701,fitts,60.0602764769956,
100,30,400,3,31,331,64,0.0375,0.2222222222222222,1,0,0,0.9648380998987705,target,001,part3,2019_Jan_02_1701,fitts,60.0602764769956,
100,15,300,3,32,332,40,-0.00375,0.4888888888888889,1,0,0,0.7315734000876546,target,001,part3,2019_Jan_02_1701,fitts,60.0602764769956,
400,30,200,3,33,333,27,-0.1675,0.44,1,0,0,0.41500359983183444,target,001,part3,2019_Jan_02_1701,fitts,60.0602764769956,
200,15,200,3,34,334,21,-0.11875,0.5355555555555556,1,0,0,0.48221329995431006,target,001,part3,2019_Jan_02_1701,fitts,60.0602764769956,
300,30,300,3,35,335,46,-0.11375,0.41333333333333333,1,0,0,0.481746600009501,target,001,part3,2019_Jan_02_1701,fitts,60.0602764769956,
300,60,300,3,36,336,54,-0.19375,0.042222222222222223,1,0,0,0.4984973000828177,target,001,part3,2019_Jan_02_1701,fitts,60.0602764769956,
200,30,400,3,37,337,65,0.07125,0.23333333333333334,1,0,0,0.6151748998090625,target,001,part3,2019_Jan_02_1701,fitts,60.0602764769956,
100,30,300,3,38,338,44,-0.06625,0.3333333333333333,1,0,0,0.7315640000160784,target,001,part3,2019_Jan_02_1701,fitts,60.0602764769956,
300,75,100,3,39,339,18,-0.32125,0.45555555555555555,1,0,0,0.4647690998390317,target,001,part3,2019_Jan_02_1701,fitts,60.0602764769956,
100,75,200,3,40,340,36,-0.3,0.25555555555555554,1,0,0,0.5325225000269711,target,001,part3,2019_Jan_02_1701,fitts,60.0602764769956,
200,60,100,3,41,341,13,-0.3175,0.4444444444444444,1,0,0,0.5319852000102401,target,001,part3,2019_Jan_02_1701,fitts,60.0602764769956,
100,45,100,3,42,342,8,-0.28125,0.48444444444444446,1,0,0,0.5315560000017285,target,001,part3,2019_Jan_02_1701,fitts,60.0602764769956,
400,45,100,3,43,343,11,-0.31,0.5177777777777778,1,0,0,0.34887690003961325,target,001,part3,2019_Jan_02_1701,fitts,60.0602764769956,
200,30,500,3,44,344,85,0.15,0.12,1,0,0,0.7482855999842286,target,001,part3,2019_Jan_02_1701,fitts,60.0602764769956,
300,15,300,3,45,345,42,-0.06125,0.5066666666666667,1,0,0,0.648035200079903,target,001,part3,2019_Jan_02_1701,fitts,60.0602764769956,
400,30,400,3,46,346,67,0.0675,0.25555555555555554,1,0,0,0.783041900023818,target,001,part3,2019_Jan_02_1701,fitts,60.0602764769956,
100,75,500,3,47,347,96,-0.20875,-0.39555555555555555,1,0,0,1.0330348999705166,target,001,part3,2019_Jan_02_1701,fitts,60.0602764769956,
200,75,400,3,48,348,77,-0.1975,-0.2288888888888889,1,0,0,0.647322200005874,target,001,part3,2019_Jan_02_1701,fitts,60.0602764769956,
300,45,100,3,49,349,10,-0.27375,0.49333333333333335,1,0,0,0.532304200110957,target,001,part3,2019_Jan_02_1701,fitts,60.0602764769956,
200,45,400,3,50,350,69,0.0,0.035555555555555556,1,0,0,0.6153957999777049,target,001,part3,2019_Jan_02_1701,fitts,60.0602764769956,
200,75,100,3,51,351,17,-0.33875,0.4288888888888889,1,0,0,0.5825831000693142,target,001,part3,2019_Jan_02_1701,fitts,60.0602764769956,
100,15,200,3,52,352,20,-0.1275,0.5688888888888889,1,0,0,0.7313382001593709,target,001,part3,2019_Jan_02_1701,fitts,60.0602764769956,
100,15,400,3,53,353,60,0.10625,0.4288888888888889,1,0,0,1.013864800101146,target,001,part3,2019_Jan_02_1701,fitts,60.0602764769956,
200,60,500,3,54,354,93,-0.06625,-0.3111111111111111,1,0,0,0.7151379999704659,target,001,part3,2019_Jan_02_1701,fitts,60.0602764769956,
300,75,400,3,55,355,78,-0.21875,-0.2288888888888889,1,0,0,0.47969109984114766,target,001,part3,2019_Jan_02_1701,fitts,60.0602764769956,
200,15,300,3,56,356,41,0.0125,0.4911111111111111,1,0,0,0.681906099896878,target,001,part3,2019_Jan_02_1701,fitts,60.0602764769956,
400,45,300,3,57,357,51,-0.0525,0.2288888888888889,1,0,0,0.46468520001508296,target,001,part3,2019_Jan_02_1701,fitts,60.0602764769956,
200,45,500,3,58,358,89,0.0775,-0.13111111111111112,1,0,0,0.6482480999547988,target,001,part3,2019_Jan_02_1701,fitts,60.0602764769956,
100,60,100,3,59,359,12,-0.31875,0.4688888888888889,1,0,0,0.7651496999897063,target,001,part3,2019_Jan_02_1701,fitts,60.0602764769956,
400,15,500,3,60,360,83,0.24375,0.43333333333333335,1,0,0,0.6821285001933575,target,001,part3,2019_Jan_02_1701,fitts,60.0602764769956,
400,60,500,3,61,361,95,-0.06,-0.24666666666666667,1,0,0,0.7155783998314291,target,001,part3,2019_Jan_02_1701,fitts,60.0602764769956,
300,45,300,3,62,362,50,-0.11625,0.20222222222222222,1,0,0,0.6321886999066919,target,001,part3,2019_Jan_02_1701,fitts,60.0602764769956,
100,60,200,3,63,363,32,-0.24375,0.26666666666666666,1,0,0,0.848247200017795,target,001,part3,2019_Jan_02_1701,fitts,60.0602764769956,
100,45,500,3,64,364,88,0.05375,-0.1,1,0,0,0.899184999987483,target,001,part3,2019_Jan_02_1701,fitts,60.0602764769956,
300,45,500,3,65,365,90,0.055,-0.10666666666666667,1,0,0,0.5657013999298215,target,001,part3,2019_Jan_02_1701,fitts,60.0602764769956,
400,60,200,3,66,366,35,-0.235,0.24888888888888888,1,0,0,0.4654365999158472,target,001,part3,2019_Jan_02_1701,fitts,60.0602764769956,
400,60,100,3,67,367,15,-0.315,0.40444444444444444,1,0,0,0.4985102000646293,target,001,part3,2019_Jan_02_1701,fitts,60.0602764769956,
300,60,500,3,68,368,94,-0.07625,-0.25555555555555554,1,0,0,0.6482806000858545,target,001,part3,2019_Jan_02_1701,fitts,60.0602764769956,
100,60,400,3,69,369,72,-0.13125,-0.09333333333333334,1,0,0,0.7483637998811901,target,001,part3,2019_Jan_02_1701,fitts,60.0602764769956,
300,75,300,3,70,370,58,-0.28625,0.0,1,0,0,0.5820340998470783,target,001,part3,2019_Jan_02_1701,fitts,60.0602764769956,
200,45,300,3,71,371,49,-0.13625,0.2222222222222222,1,0,0,0.7322906998451799,target,001,part3,2019_Jan_02_1701,fitts,60.0602764769956,
100,30,500,3,72,372,84,0.1575,0.11555555555555555,1,0,0,0.731709900079295,target,001,part3,2019_Jan_02_1701,fitts,60.0602764769956,
200,75,200,3,73,373,37,-0.305,0.19555555555555557,1,0,0,0.5653874999843538,target,001,part3,2019_Jan_02_1701,fitts,60.0602764769956,
400,45,400,3,74,374,71,-0.06625,0.09777777777777778,1,0,0,0.5986200999468565,target,001,part3,2019_Jan_02_1701,fitts,60.0602764769956,
100,60,300,3,75,375,52,-0.1975,0.10222222222222223,1,0,0,0.681912099942565,target,001,part3,2019_Jan_02_1701,fitts,60.0602764769956,
200,75,300,3,76,376,57,-0.28875,0.042222222222222223,1,0,0,0.6154847000725567,target,001,part3,2019_Jan_02_1701,fitts,60.0602764769956,
300,15,400,3,77,377,62,0.09375,0.43555555555555553,1,0,0,0.6147135000210255,target,001,part3,2019_Jan_02_1701,fitts,60.0602764769956,
300,30,400,3,78,378,66,0.04875,0.20222222222222222,1,0,0,0.565308399964124,target,001,part3,2019_Jan_02_1701,fitts,60.0602764769956,
300,60,100,3,79,379,14,-0.30125,0.4533333333333333,1,0,0,0.5486327998805791,target,001,part3,2019_Jan_02_1701,fitts,60.0602764769956,
300,15,100,3,80,380,2,-0.2475,0.5933333333333334,1,0,0,0.4988687001168728,target,001,part3,2019_Jan_02_1701,fitts,60.0602764769956,
400,30,500,3,81,381,87,0.145,0.1688888888888889,1,0,0,0.6163936001248658,target,001,part3,2019_Jan_02_1701,fitts,60.0602764769956,
400,75,500,3,82,382,99,-0.2475,-0.31777777777777777,1,0,0,0.7482394999824464,target,001,part3,2019_Jan_02_1701,fitts,60.0602764769956,
300,75,200,3,83,383,38,-0.3125,0.2911111111111111,1,0,0,0.4323540001641959,target,001,part3,2019_Jan_02_1701,fitts,60.0602764769956,
300,30,500,3,84,384,86,0.19625,0.17555555555555555,1,0,0,0.5651056000497192,target,001,part3,2019_Jan_02_1701,fitts,60.0602764769956,
100,30,200,3,85,385,24,-0.1525,0.44,1,0,0,0.6305400999262929,target,001,part3,2019_Jan_02_1701,fitts,60.0602764769956,
300,60,400,3,86,386,74,-0.11,-0.07333333333333333,1,0,0,0.6477417999412864,target,001,part3,2019_Jan_02_1701,fitts,60.0602764769956,
400,30,300,3,87,387,47,-0.045,0.3422222222222222,1,0,0,0.5322102000936866,target,001,part3,2019_Jan_02_1701,fitts,60.0602764769956,
200,30,100,3,88,388,5,-0.27875,0.5466666666666666,1,0,0,0.5655050000641495,target,001,part3,2019_Jan_02_1701,fitts,60.0602764769956,
200,60,400,3,89,389,73,-0.14125,-0.12444444444444444,1,0,0,0.6153963000979275,target,001,part3,2019_Jan_02_1701,fitts,60.0602764769956,
300,60,200,3,90,390,34,-0.2825,0.3,1,0,0,0.4821444998960942,target,001,part3,2019_Jan_02_1701,fitts,60.0602764769956,
100,15,500,3,91,391,80,0.215,0.37333333333333335,1,0,0,1.0995877999812365,target,001,part3,2019_Jan_02_1701,fitts,60.0602764769956,
300,30,200,3,92,392,26,-0.17125,0.5022222222222222,1,0,0,0.49749920004978776,target,001,part3,2019_Jan_02_1701,fitts,60.0602764769956,
400,75,200,3,93,393,39,-0.30875,0.3022222222222222,1,0,0,0.43192580016329885,target,001,part3,2019_Jan_02_1701,fitts,60.0602764769956,
200,60,200,3,94,394,33,-0.24625,0.29555555555555557,1,0,0,0.5319254000205547,target,001,part3,2019_Jan_02_1701,fitts,60.0602764769956,
400,15,300,3,95,395,43,0.0075,0.5422222222222223,1,0,0,0.5486668001394719,target,001,part3,2019_Jan_02_1701,fitts,60.0602764769956,
300,75,500,3,96,396,98,-0.23875,-0.35777777777777775,1,0,0,0.7485630998853594,target,001,part3,2019_Jan_02_1701,fitts,60.0602764769956,
100,75,400,3,97,397,76,-0.26125,-0.18222222222222223,1,0,0,0.8482542999554425,target,001,part3,2019_Jan_02_1701,fitts,60.0602764769956,
100,45,200,3,98,398,28,-0.19375,0.3622222222222222,1,0,0,0.5990048998501152,target,001,part3,2019_Jan_02_1701,fitts,60.0602764769956,
100,30,100,3,99,399,4,-0.2675,0.5511111111111111,1,0,0,0.5485932000447065,target,001,part3,2019_Jan_02_1701,fitts,60.0602764769956,
100,60,500,4,0,400,92,-0.075,-0.29333333333333333,1,0,0,0.9164621001109481,target,001,part3,2019_Jan_02_1701,fitts,60.0602764769956,
100,60,100,4,1,401,12,-0.3225,0.4822222222222222,1,0,0,0.9478367001283914,target,001,part3,2019_Jan_02_1701,fitts,60.0602764769956,
100,75,500,4,2,402,96,-0.22625,-0.3977777777777778,1,0,0,0.8146943000610918,target,001,part3,2019_Jan_02_1701,fitts,60.0602764769956,
200,75,400,4,3,403,77,-0.2525,-0.24222222222222223,1,0,0,0.5487586997915059,target,001,part3,2019_Jan_02_1701,fitts,60.0602764769956,
200,45,300,4,4,404,49,-0.075,0.21777777777777776,1,0,0,0.5985310000833124,target,001,part3,2019_Jan_02_1701,fitts,60.0602764769956,
100,30,100,4,5,405,4,-0.26125,0.54,1,0,0,0.5152451999019831,target,001,part3,2019_Jan_02_1701,fitts,60.0602764769956,
300,30,300,4,6,406,46,-0.04125,0.3488888888888889,1,0,0,0.48183699999935925,target,001,part3,2019_Jan_02_1701,fitts,60.0602764769956,
400,60,200,4,7,407,35,-0.26625,0.2911111111111111,1,0,0,0.5833298999350518,target,001,part3,2019_Jan_02_1701,fitts,60.0602764769956,
400,60,100,4,8,408,15,-0.3375,0.4866666666666667,1,0,0,0.48304640012793243,target,001,part3,2019_Jan_02_1701,fitts,60.0602764769956,
100,75,200,4,9,409,36,-0.2975,0.21777777777777776,1,0,0,0.6485480000264943,target,001,part3,2019_Jan_02_1701,fitts,60.0602764769956,
400,60,500,4,10,410,95,-0.105,-0.23555555555555555,1,0,0,0.5322950000409037,target,001,part3,2019_Jan_02_1701,fitts,60.0602764769956,
200,45,100,4,11,411,9,-0.30875,0.5488888888888889,1,0,0,0.44891360006295145,target,001,part3,2019_Jan_02_1701,fitts,60.0602764769956,
100,30,200,4,12,412,24,-0.16375,0.44666666666666666,1,0,0,0.5817161998711526,target,001,part3,2019_Jan_02_1701,fitts,60.0602764769956,
300,30,100,4,13,413,6,-0.28375,0.5266666666666666,1,0,0,0.41385440016165376,target,001,part3,2019_Jan_02_1701,fitts,60.0602764769956,
200,45,400,4,14,414,69,-0.0275,0.04,1,0,0,0.5482902000658214,target,001,part3,2019_Jan_02_1701,fitts,60.0602764769956,
400,45,400,4,15,415,71,-0.05125,0.11555555555555555,1,0,0,0.45054979994893074,target,001,part3,2019_Jan_02_1701,fitts,60.0602764769956,
200,60,100,4,16,416,13,-0.34,0.5044444444444445,1,0,0,0.5656804000027478,target,001,part3,2019_Jan_02_1701,fitts,60.0602764769956,
100,15,300,4,17,417,40,-0.02125,0.48,1,0,0,0.7159166000783443,target,001,part3,2019_Jan_02_1701,fitts,60.0602764769956,
200,30,100,4,18,418,5,-0.31,0.5644444444444444,1,0,0,0.6149733001366258,target,001,part3,2019_Jan_02_1701,fitts,60.0602764769956,
200,30,200,4,19,419,25,-0.125,0.46,1,0,0,0.5321642002090812,target,001,part3,2019_Jan_02_1701,fitts,60.0602764769956,
300,15,500,4,20,420,82,0.22875,0.40444444444444444,1,0,0,0.6652664998546243,target,001,part3,2019_Jan_02_1701,fitts,60.0602764769956,
300,75,100,4,21,421,18,-0.4,0.44222222222222224,1,0,0,0.5823083999566734,target,001,part3,2019_Jan_02_1701,fitts,60.0602764769956,
100,30,400,4,22,422,64,0.05125,0.23555555555555555,1,0,0,0.8314372000750154,target,001,part3,2019_Jan_02_1701,fitts,60.0602764769956,
200,30,400,4,23,423,65,0.03125,0.23555555555555555,1,0,0,0.6625753999687731,target,001,part3,2019_Jan_02_1701,fitts,60.0602764769956,
300,60,500,4,24,424,94,-0.075,-0.2288888888888889,1,0,0,0.699380099773407,target,001,part3,2019_Jan_02_1701,fitts,60.0602764769956,
300,30,500,4,25,425,86,0.12,0.16,1,0,0,0.6004293998703361,target,001,part3,2019_Jan_02_1701,fitts,60.0602764769956,
400,45,200,4,26,426,31,-0.215,0.3711111111111111,1,0,0,0.5484385001473129,target,001,part3,2019_Jan_02_1701,fitts,60.0602764769956,
300,75,400,4,27,427,78,-0.25375,-0.17333333333333334,1,0,0,0.6152871001977473,target,001,part3,2019_Jan_02_1701,fitts,60.0602764769956,
100,60,300,4,28,428,52,-0.19875,0.08888888888888889,1,0,0,0.8149546999484301,target,001,part3,2019_Jan_02_1701,fitts,60.0602764769956,
300,75,200,4,29,429,38,-0.30625,0.23555555555555555,1,0,0,0.4992267000488937,target,001,part3,2019_Jan_02_1701,fitts,60.0602764769956,
400,30,100,4,30,430,7,-0.3,0.5222222222222223,1,0,0,0.464196200016886,target,001,part3,2019_Jan_02_1701,fitts,60.0602764769956,
200,60,500,4,31,431,93,-0.07125,-0.27555555555555555,1,0,0,0.7319366000592709,target,001,part3,2019_Jan_02_1701,fitts,60.0602764769956,
400,15,200,4,32,432,23,-0.1725,0.6133333333333333,1,0,0,0.4822271999437362,target,001,part3,2019_Jan_02_1701,fitts,60.0602764769956,
400,15,500,4,33,433,83,0.2075,0.4111111111111111,1,0,0,0.6814180000219494,target,001,part3,2019_Jan_02_1701,fitts,60.0602764769956,
300,45,300,4,34,434,50,-0.13375,0.2911111111111111,1,0,0,0.5146242999471724,target,001,part3,2019_Jan_02_1701,fitts,60.0602764769956,
100,15,100,4,35,435,0,-0.27375,0.6333333333333333,1,0,0,0.5983205998782068,target,001,part3,2019_Jan_02_1701,fitts,60.0602764769956,
400,75,400,4,36,436,79,-0.25875,-0.06444444444444444,1,0,0,0.6652534999884665,target,001,part3,2019_Jan_02_1701,fitts,60.0602764769956,
400,75,300,4,37,437,59,-0.3125,0.1711111111111111,1,0,0,0.4318964001722634,target,001,part3,2019_Jan_02_1701,fitts,60.0602764769956,
400,45,300,4,38,438,51,-0.14125,0.32666666666666666,1,0,0,0.5149836998898536,target,001,part3,2019_Jan_02_1701,fitts,60.0602764769956,
200,15,200,4,39,439,21,-0.125,0.5444444444444444,1,0,0,0.49835680006071925,target,001,part3,2019_Jan_02_1701,fitts,60.0602764769956,
200,60,400,4,40,440,73,-0.1425,-0.13111111111111112,1,0,0,0.6142127998173237,target,001,part3,2019_Jan_02_1701,fitts,60.0602764769956,
300,60,400,4,41,441,74,-0.08625,-0.1288888888888889,1,0,0,0.48104139999486506,target,001,part3,2019_Jan_02_1701,fitts,60.0602764769956,
400,60,400,4,42,442,75,-0.11375,-0.05333333333333334,1,0,0,0.5817084000445902,target,001,part3,2019_Jan_02_1701,fitts,60.0602764769956,
400,30,500,4,43,443,87,0.19,0.08666666666666667,1,0,0,0.6335088000632823,target,001,part3,2019_Jan_02_1701,fitts,60.0602764769956,
100,75,100,4,44,444,16,-0.34125,0.45555555555555555,1,0,0,0.8139144999440759,target,001,part3,2019_Jan_02_1701,fitts,60.0602764769956,
200,75,200,4,45,445,37,-0.3025,0.24222222222222223,1,0,0,0.5484744999557734,target,001,part3,2019_Jan_02_1701,fitts,60.0602764769956,
100,75,300,4,46,446,56,-0.28,0.006666666666666667,1,0,0,0.5990951999556273,target,001,part3,2019_Jan_02_1701,fitts,60.0602764769956,
400,15,100,4,47,447,3,-0.27625,0.5422222222222223,1,0,0,0.49885690002702177,target,001,part3,2019_Jan_02_1701,fitts,60.0602764769956,
400,15,400,4,48,448,63,0.16625,0.49333333333333335,1,0,0,0.5323143999557942,target,001,part3,2019_Jan_02_1701,fitts,60.0602764769956,
400,30,400,4,49,449,67,0.10375,0.2866666666666667,1,0,0,0.5157306999899447,target,001,part3,2019_Jan_02_1701,fitts,60.0602764769956,
200,15,500,4,50,450,81,0.2425,0.3422222222222222,1,0,0,0.6983080999925733,target,001,part3,2019_Jan_02_1701,fitts,60.0602764769956,
200,75,500,4,51,451,97,-0.20375,-0.37777777777777777,1,0,0,1.0483770000282675,target,001,part3,2019_Jan_02_1701,fitts,60.0602764769956,
200,45,500,4,52,452,89,0.05,-0.08888888888888889,1,0,0,0.6984003998804837,target,001,part3,2019_Jan_02_1701,fitts,60.0602764769956,
400,75,500,4,53,453,99,-0.2175,-0.38,1,0,0,0.5323083000257611,target,001,part3,2019_Jan_02_1701,fitts,60.0602764769956,
200,15,400,4,54,454,61,0.11875,0.42,1,0,0,0.8815599998924881,target,001,part3,2019_Jan_02_1701,fitts,60.0602764769956,
300,15,300,4,55,455,42,-0.0325,0.5044444444444445,1,0,0,0.5154639000538737,target,001,part3,2019_Jan_02_1701,fitts,60.0602764769956,
400,75,200,4,56,456,39,-0.2925,0.25333333333333335,1,0,0,0.41550179990008473,target,001,part3,2019_Jan_02_1701,fitts,60.0602764769956,
300,60,200,4,57,457,34,-0.2625,0.30666666666666664,1,0,0,0.4518365999683738,target,001,part3,2019_Jan_02_1701,fitts,60.0602764769956,
300,30,200,4,58,458,26,-0.1575,0.4488888888888889,1,0,0,0.4985234998166561,target,001,part3,2019_Jan_02_1701,fitts,60.0602764769956,
300,15,100,4,59,459,2,-0.24875,0.5511111111111111,1,0,0,0.49907869985327125,target,001,part3,2019_Jan_02_1701,fitts,60.0602764769956,
400,45,500,4,60,460,91,0.075,-0.08222222222222222,1,0,0,0.5154989999718964,target,001,part3,2019_Jan_02_1701,fitts,60.0602764769956,
300,15,200,4,61,461,22,-0.15125,0.5066666666666667,1,0,0,0.46529259998351336,target,001,part3,2019_Jan_02_1701,fitts,60.0602764769956,
200,60,300,4,62,462,53,-0.21625,0.10666666666666667,1,0,0,0.6647934999782592,target,001,part3,2019_Jan_02_1701,fitts,60.0602764769956,
100,45,100,4,63,463,8,-0.2875,0.49333333333333335,1,0,0,0.6313100999686867,target,001,part3,2019_Jan_02_1701,fitts,60.0602764769956,
200,60,200,4,64,464,33,-0.25125,0.3111111111111111,1,0,0,0.48216790007427335,target,001,part3,2019_Jan_02_1701,fitts,60.0602764769956,
300,75,500,4,65,465,98,-0.245,-0.39555555555555555,1,0,0,0.6985132000409067,target,001,part3,2019_Jan_02_1701,fitts,60.0602764769956,
300,15,400,4,66,466,62,0.0925,0.4622222222222222,1,0,0,0.6484364001080394,target,001,part3,2019_Jan_02_1701,fitts,60.0602764769956,
200,30,500,4,67,467,85,0.16,0.12222222222222222,1,0,0,0.7817011000588536,target,001,part3,2019_Jan_02_1701,fitts,60.0602764769956,
100,30,300,4,68,468,44,-0.04875,0.30666666666666664,1,0,0,0.7148509998805821,target,001,part3,2019_Jan_02_1701,fitts,60.0602764769956,
200,75,300,4,69,469,57,-0.2975,0.07555555555555556,1,0,0,0.5986193001735955,target,001,part3,2019_Jan_02_1701,fitts,60.0602764769956,
400,30,200,4,70,470,27,-0.25125,0.49333333333333335,1,0,0,0.4483827000949532,target,001,part3,2019_Jan_02_1701,fitts,60.0602764769956,
300,45,200,4,71,471,30,-0.17625,0.36444444444444446,1,0,0,0.4155263998545706,target,001,part3,2019_Jan_02_1701,fitts,60.0602764769956,
200,45,200,4,72,472,29,-0.2125,0.36,1,0,0,0.5655151000246406,target,001,part3,2019_Jan_02_1701,fitts,60.0602764769956,
200,75,100,4,73,473,17,-0.36625,0.4866666666666667,1,0,0,0.5152943001594394,target,001,part3,2019_Jan_02_1701,fitts,60.0602764769956,
300,75,300,4,74,474,58,-0.2675,0.02666666666666667,1,0,0,0.5154885998927057,target,001,part3,2019_Jan_02_1701,fitts,60.0602764769956,
100,45,400,4,75,475,68,-0.03875,0.08,1,0,0,1.0806368999183178,target,001,part3,2019_Jan_02_1701,fitts,60.0602764769956,
400,75,100,4,76,476,19,-0.33875,0.48,1,0,0,0.4651210999581963,target,001,part3,2019_Jan_02_1701,fitts,60.0602764769956,
400,45,100,4,77,477,11,-0.3,0.48,1,0,0,0.4654004001058638,target,001,part3,2019_Jan_02_1701,fitts,60.0602764769956,
400,30,300,4,78,478,47,-0.055,0.35555555555555557,1,0,0,0.49905320000834763,target,001,part3,2019_Jan_02_1701,fitts,60.0602764769956,
200,15,100,4,79,479,1,-0.26625,0.6133333333333333,1,0,0,0.48181469994597137,target,001,part3,2019_Jan_02_1701,fitts,60.0602764769956,
100,75,400,4,80,480,76,-0.255,-0.1622222222222222,1,0,0,0.9812066000886261,target,001,part3,2019_Jan_02_1701,fitts,60.0602764769956,
100,45,300,4,81,481,48,-0.11,0.21333333333333335,1,0,0,0.6477153000887483,target,001,part3,2019_Jan_02_1701,fitts,60.0602764769956,
200,15,300,4,82,482,41,-0.01125,0.49333333333333335,1,0,0,0.5485946000553668,target,001,part3,2019_Jan_02_1701,fitts,60.0602764769956,
100,15,200,4,83,483,20,-0.11875,0.5533333333333333,1,0,0,0.6649295000825077,target,001,part3,2019_Jan_02_1701,fitts,60.0602764769956,
100,45,200,4,84,484,28,-0.20125,0.3511111111111111,1,0,0,0.7485130000859499,target,001,part3,2019_Jan_02_1701,fitts,60.0602764769956,
100,60,400,4,85,485,72,-0.14,-0.07555555555555556,1,0,0,0.764843299984932,target,001,part3,2019_Jan_02_1701,fitts,60.0602764769956,
200,30,300,4,86,486,45,-0.07,0.33111111111111113,1,0,0,0.5321992000099272,target,001,part3,2019_Jan_02_1701,fitts,60.0602764769956,
300,30,400,4,87,487,66,0.00375,0.22666666666666666,1,0,0,0.5157297002151608,target,001,part3,2019_Jan_02_1701,fitts,60.0602764769956,
100,15,400,4,88,488,60,0.11875,0.4177777777777778,1,0,0,0.7981978000607342,target,001,part3,2019_Jan_02_1701,fitts,60.0602764769956,
400,60,300,4,89,489,55,-0.21,0.1288888888888889,1,0,0,0.5652111999224871,target,001,part3,2019_Jan_02_1701,fitts,60.0602764769956,
100,60,200,4,90,490,32,-0.24125,0.2688888888888889,1,0,0,0.6487251000944525,target,001,part3,2019_Jan_02_1701,fitts,60.0602764769956,
300,45,400,4,91,491,70,-0.05125,0.08888888888888889,1,0,0,0.7479809999931604,target,001,part3,2019_Jan_02_1701,fitts,60.0602764769956,
400,15,300,4,92,492,43,-0.0525,0.5133333333333333,1,0,0,0.6645285999402404,target,001,part3,2019_Jan_02_1701,fitts,60.0602764769956,
300,60,100,4,93,493,14,-0.3325,0.5155555555555555,1,0,0,0.5148897001054138,target,001,part3,2019_Jan_02_1701,fitts,60.0602764769956,
100,15,500,4,94,494,80,0.21125,0.39111111111111113,1,0,0,0.7816282999701798,target,001,part3,2019_Jan_02_1701,fitts,60.0602764769956,
100,45,500,4,95,495,88,0.0425,-0.11777777777777777,1,0,0,0.8151783999055624,target,001,part3,2019_Jan_02_1701,fitts,60.0602764769956,
100,30,500,4,96,496,84,0.1725,0.09777777777777778,1,0,0,0.7481649001128972,target,001,part3,2019_Jan_02_1701,fitts,60.0602764769956,
300,60,300,4,97,497,54,-0.1975,0.14666666666666667,1,0,0,0.4987778998911381,target,001,part3,2019_Jan_02_1701,fitts,60.0602764769956,
300,45,500,4,98,498,90,0.0575,-0.07333333333333333,1,0,0,0.5978719999548048,target,001,part3,2019_Jan_02_1701,fitts,60.0602764769956,
300,45,100,4,99,499,10,-0.32625,0.5333333333333333,1,0,0,0.48208989994600415,target,001,part3,2019_Jan_02_1701,fitts,60.0602764769956,
