size,direction,distance,trials.thisRepN,trials.thisTrialN,trials.thisN,trials.thisIndex,mouse_target.x,mouse_target.y,mouse_target.leftButton,mouse_target.midButton,mouse_target.rightButton,mouse_target.time,mouse_target.clicked_name,session,participant,date,expName,frameRate,
400,45,400,0,0,0,71,0.025,0.04666666666666667,1,0,0,0.49520500004291534,target,001,part2,2018_Dec_24_1848,fitts,60.02775682248813,
200,30,500,0,1,1,85,0.17125,0.1111111111111111,1,0,0,0.6309350000228733,target,001,part2,2018_Dec_24_1848,fitts,60.02775682248813,
400,30,400,0,2,2,67,0.0425,0.24888888888888888,1,0,0,0.5316517000319436,target,001,part2,2018_Dec_24_1848,fitts,60.02775682248813,
100,60,200,0,3,3,32,-0.215,0.2911111111111111,1,0,0,0.6480307999299839,target,001,part2,2018_Dec_24_1848,fitts,60.02775682248813,
100,30,200,0,4,4,24,-0.175,0.4533333333333333,1,0,0,0.7315968000330031,target,001,part2,2018_Dec_24_1848,fitts,60.02775682248813,
100,75,200,0,5,5,36,-0.29375,0.22,1,0,0,0.6320888999616727,target,001,part2,2018_Dec_24_1848,fitts,60.02775682248813,
400,15,200,0,6,6,23,-0.18125,0.5844444444444444,1,0,0,0.4660270999884233,target,001,part2,2018_Dec_24_1848,fitts,60.02775682248813,
100,75,400,0,7,7,76,-0.25375,-0.19111111111111112,1,0,0,0.8158397000515833,target,001,part2,2018_Dec_24_1848,fitts,60.02775682248813,
100,75,100,0,8,8,16,-0.36125,0.45555555555555555,1,0,0,0.6319582000141963,target,001,part2,2018_Dec_24_1848,fitts,60.02775682248813,
300,15,200,0,9,9,22,-0.19375,0.5555555555555556,1,0,0,0.6148853999329731,target,001,part2,2018_Dec_24_1848,fitts,60.02775682248813,
300,45,300,0,10,10,50,-0.1375,0.20222222222222222,1,0,0,0.732805399922654,target,001,part2,2018_Dec_24_1848,fitts,60.02775682248813,
300,30,300,0,11,11,46,-0.05625,0.3244444444444444,1,0,0,0.6315874999854714,target,001,part2,2018_Dec_24_1848,fitts,60.02775682248813,
300,75,300,0,12,12,58,-0.31,-0.03777777777777778,1,0,0,0.5985415000468493,target,001,part2,2018_Dec_24_1848,fitts,60.02775682248813,
100,45,100,0,13,13,8,-0.31125,0.54,1,0,0,0.6481972000328824,target,001,part2,2018_Dec_24_1848,fitts,60.02775682248813,
300,45,200,0,14,14,30,-0.23,0.37777777777777777,1,0,0,0.48179410002194345,target,001,part2,2018_Dec_24_1848,fitts,60.02775682248813,
100,75,300,0,15,15,56,-0.27625,-0.008888888888888889,1,0,0,0.5312799999956042,target,001,part2,2018_Dec_24_1848,fitts,60.02775682248813,
200,75,200,0,16,16,37,-0.3075,0.21777777777777776,1,0,0,0.49879159999545664,target,001,part2,2018_Dec_24_1848,fitts,60.02775682248813,
200,30,300,0,17,17,45,-0.01375,0.34,1,0,0,0.48222540004644543,target,001,part2,2018_Dec_24_1848,fitts,60.02775682248813,
200,45,200,0,18,18,29,-0.1775,0.32,1,0,0,0.5158014999469742,target,001,part2,2018_Dec_24_1848,fitts,60.02775682248813,
400,15,500,0,19,19,83,0.26375,0.41555555555555557,1,0,0,0.4324854000005871,target,001,part2,2018_Dec_24_1848,fitts,60.02775682248813,
100,15,500,0,20,20,80,0.2075,0.38222222222222224,1,0,0,1.0141954999417067,target,001,part2,2018_Dec_24_1848,fitts,60.02775682248813,
100,30,400,0,21,21,64,0.03625,0.23333333333333334,1,0,0,0.8311483999714255,target,001,part2,2018_Dec_24_1848,fitts,60.02775682248813,
200,30,400,0,22,22,65,0.06875,0.23777777777777778,1,0,0,0.7153787000570446,target,001,part2,2018_Dec_24_1848,fitts,60.02775682248813,
200,15,100,0,23,23,1,-0.28875,0.64,1,0,0,0.5653876001015306,target,001,part2,2018_Dec_24_1848,fitts,60.02775682248813,
200,75,400,0,24,24,77,-0.2175,-0.16,1,0,0,0.7483959000092,target,001,part2,2018_Dec_24_1848,fitts,60.02775682248813,
300,60,400,0,25,25,74,-0.125,-0.10888888888888888,1,0,0,0.5318125999765471,target,001,part2,2018_Dec_24_1848,fitts,60.02775682248813,
200,15,500,0,26,26,81,0.1975,0.3888888888888889,1,0,0,0.6986385999480262,target,001,part2,2018_Dec_24_1848,fitts,60.02775682248813,
400,60,300,0,27,27,55,-0.1725,0.13333333333333333,1,0,0,0.49880159995518625,target,001,part2,2018_Dec_24_1848,fitts,60.02775682248813,
400,15,300,0,28,28,43,-0.02875,0.48444444444444446,1,0,0,0.5155007999856025,target,001,part2,2018_Dec_24_1848,fitts,60.02775682248813,
400,15,400,0,29,29,63,0.15625,0.4711111111111111,1,0,0,0.46442360000219196,target,001,part2,2018_Dec_24_1848,fitts,60.02775682248813,
200,15,400,0,30,30,61,0.145,0.4311111111111111,1,0,0,0.5988051999593154,target,001,part2,2018_Dec_24_1848,fitts,60.02775682248813,
300,15,400,0,31,31,62,0.04625,0.4777777777777778,1,0,0,0.46537390002049506,target,001,part2,2018_Dec_24_1848,fitts,60.02775682248813,
300,45,500,0,32,32,90,0.07375,-0.04,1,0,0,0.6484610000625253,target,001,part2,2018_Dec_24_1848,fitts,60.02775682248813,
100,75,500,0,33,33,96,-0.215,-0.43555555555555553,1,0,0,0.7649379000067711,target,001,part2,2018_Dec_24_1848,fitts,60.02775682248813,
400,30,100,0,34,34,7,-0.235,0.4688888888888889,1,0,0,0.48167030001059175,target,001,part2,2018_Dec_24_1848,fitts,60.02775682248813,
100,60,400,0,35,35,72,-0.1275,-0.10888888888888888,1,0,0,0.7819038000889122,target,001,part2,2018_Dec_24_1848,fitts,60.02775682248813,
300,15,300,0,36,36,42,-0.05625,0.5666666666666667,1,0,0,0.5325628999853507,target,001,part2,2018_Dec_24_1848,fitts,60.02775682248813,
200,60,100,0,37,37,13,-0.315,0.4577777777777778,1,0,0,0.6818386999657378,target,001,part2,2018_Dec_24_1848,fitts,60.02775682248813,
100,15,100,0,38,38,0,-0.25875,0.5955555555555555,1,0,0,0.5651661999290809,target,001,part2,2018_Dec_24_1848,fitts,60.02775682248813,
200,75,100,0,39,39,17,-0.335,0.4488888888888889,1,0,0,0.6146579999476671,target,001,part2,2018_Dec_24_1848,fitts,60.02775682248813,
400,45,500,0,40,40,91,0.035,-0.015555555555555555,1,0,0,0.6655579999787733,target,001,part2,2018_Dec_24_1848,fitts,60.02775682248813,
200,60,200,0,41,41,33,-0.21625,0.18444444444444444,1,0,0,0.44904330000281334,target,001,part2,2018_Dec_24_1848,fitts,60.02775682248813,
300,75,200,0,42,42,38,-0.34875,0.2511111111111111,1,0,0,0.4836479000514373,target,001,part2,2018_Dec_24_1848,fitts,60.02775682248813,
200,45,500,0,43,43,89,0.065,-0.13111111111111112,1,0,0,0.815515499911271,target,001,part2,2018_Dec_24_1848,fitts,60.02775682248813,
400,75,100,0,44,44,19,-0.325,0.43555555555555553,1,0,0,0.41615149995777756,target,001,part2,2018_Dec_24_1848,fitts,60.02775682248813,
400,30,500,0,45,45,87,0.13,0.035555555555555556,1,0,0,0.6153748000506312,target,001,part2,2018_Dec_24_1848,fitts,60.02775682248813,
200,60,300,0,46,46,53,-0.20875,0.10666666666666667,1,0,0,0.6487675999524072,target,001,part2,2018_Dec_24_1848,fitts,60.02775682248813,
100,60,100,0,47,47,12,-0.32875,0.48,1,0,0,0.8318133000284433,target,001,part2,2018_Dec_24_1848,fitts,60.02775682248813,
300,15,500,0,48,48,82,0.23,0.37777777777777777,1,0,0,0.7148885999340564,target,001,part2,2018_Dec_24_1848,fitts,60.02775682248813,
400,75,500,0,49,49,99,-0.205,-0.3688888888888889,1,0,0,0.6482729000272229,target,001,part2,2018_Dec_24_1848,fitts,60.02775682248813,
200,45,300,0,50,50,49,-0.11,0.23333333333333334,1,0,0,0.5322639000369236,target,001,part2,2018_Dec_24_1848,fitts,60.02775682248813,
300,60,200,0,51,51,34,-0.2125,0.24666666666666667,1,0,0,0.5155119999544695,target,001,part2,2018_Dec_24_1848,fitts,60.02775682248813,
400,75,200,0,52,52,39,-0.3425,0.29777777777777775,1,0,0,0.44878620002418756,target,001,part2,2018_Dec_24_1848,fitts,60.02775682248813,
100,45,400,0,53,53,68,-0.0075,0.008888888888888889,1,0,0,0.6149878998985514,target,001,part2,2018_Dec_24_1848,fitts,60.02775682248813,
400,60,100,0,54,54,15,-0.32,0.52,1,0,0,0.3825983999995515,target,001,part2,2018_Dec_24_1848,fitts,60.02775682248813,
300,45,400,0,55,55,70,-0.005,0.02,1,0,0,0.49907820008229464,target,001,part2,2018_Dec_24_1848,fitts,60.02775682248813,
200,45,100,0,56,56,9,-0.27375,0.4955555555555556,1,0,0,0.4821665999479592,target,001,part2,2018_Dec_24_1848,fitts,60.02775682248813,
200,30,200,0,57,57,25,-0.1775,0.4577777777777778,1,0,0,0.5814745000097901,target,001,part2,2018_Dec_24_1848,fitts,60.02775682248813,
100,45,500,0,58,58,88,0.065,-0.08,1,0,0,0.6818277999991551,target,001,part2,2018_Dec_24_1848,fitts,60.02775682248813,
200,60,400,0,59,59,73,-0.07375,-0.09333333333333334,1,0,0,0.5154244999866933,target,001,part2,2018_Dec_24_1848,fitts,60.02775682248813,
200,45,400,0,60,60,69,0.00875,0.05333333333333334,1,0,0,0.5146393000613898,target,001,part2,2018_Dec_24_1848,fitts,60.02775682248813,
100,30,100,0,61,61,4,-0.2575,0.5333333333333333,1,0,0,0.566323300008662,target,001,part2,2018_Dec_24_1848,fitts,60.02775682248813,
100,60,300,0,62,62,52,-0.19875,0.11555555555555555,1,0,0,0.748313199961558,target,001,part2,2018_Dec_24_1848,fitts,60.02775682248813,
300,30,100,0,63,63,6,-0.2875,0.5577777777777778,1,0,0,0.49876149999909103,target,001,part2,2018_Dec_24_1848,fitts,60.02775682248813,
100,15,400,0,64,64,60,0.095,0.4222222222222222,1,0,0,0.8809583000838757,target,001,part2,2018_Dec_24_1848,fitts,60.02775682248813,
400,75,400,0,65,65,79,-0.19625,-0.14,1,0,0,0.5323919999646023,target,001,part2,2018_Dec_24_1848,fitts,60.02775682248813,
100,30,500,0,66,66,84,0.16625,0.10888888888888888,1,0,0,0.8314575999975204,target,001,part2,2018_Dec_24_1848,fitts,60.02775682248813,
100,60,500,0,67,67,92,-0.08,-0.3111111111111111,1,0,0,0.998033200041391,target,001,part2,2018_Dec_24_1848,fitts,60.02775682248813,
400,75,300,0,68,68,59,-0.31875,0.09111111111111111,1,0,0,0.46539079991634935,target,001,part2,2018_Dec_24_1848,fitts,60.02775682248813,
400,45,300,0,69,69,51,-0.17,0.22666666666666666,1,0,0,0.46466079994570464,target,001,part2,2018_Dec_24_1848,fitts,60.02775682248813,
200,30,100,0,70,70,5,-0.26,0.5422222222222223,1,0,0,0.5152422999963164,target,001,part2,2018_Dec_24_1848,fitts,60.02775682248813,
400,15,100,0,71,71,3,-0.21125,0.5466666666666666,1,0,0,0.5320937000215054,target,001,part2,2018_Dec_24_1848,fitts,60.02775682248813,
300,30,200,0,72,72,26,-0.16375,0.4577777777777778,1,0,0,0.5653074000729248,target,001,part2,2018_Dec_24_1848,fitts,60.02775682248813,
200,15,300,0,73,73,41,-0.01875,0.45555555555555555,1,0,0,0.5153113000560552,target,001,part2,2018_Dec_24_1848,fitts,60.02775682248813,
400,45,100,0,74,74,11,-0.2425,0.5266666666666666,1,0,0,0.36548579996451735,target,001,part2,2018_Dec_24_1848,fitts,60.02775682248813,
300,30,400,0,75,75,66,0.04625,0.2911111111111111,1,0,0,0.5322039999300614,target,001,part2,2018_Dec_24_1848,fitts,60.02775682248813,
300,15,100,0,76,76,2,-0.24875,0.5644444444444444,1,0,0,0.4651847999775782,target,001,part2,2018_Dec_24_1848,fitts,60.02775682248813,
300,75,100,0,77,77,18,-0.3125,0.44222222222222224,1,0,0,0.4652358000166714,target,001,part2,2018_Dec_24_1848,fitts,60.02775682248813,
300,45,100,0,78,78,10,-0.3125,0.5288888888888889,1,0,0,0.4157086000777781,target,001,part2,2018_Dec_24_1848,fitts,60.02775682248813,
400,30,300,0,79,79,47,-0.0275,0.31555555555555553,1,0,0,0.5151755000697449,target,001,part2,2018_Dec_24_1848,fitts,60.02775682248813,
400,60,500,0,80,80,95,0.0275,-0.23777777777777778,1,0,0,0.4318369999527931,target,001,part2,2018_Dec_24_1848,fitts,60.02775682248813,
400,60,200,0,81,81,35,-0.27,0.4311111111111111,1,0,0,0.39909909991547465,target,001,part2,2018_Dec_24_1848,fitts,60.02775682248813,
200,75,500,0,82,82,97,-0.20125,-0.49333333333333335,1,0,0,0.8813536999514326,target,001,part2,2018_Dec_24_1848,fitts,60.02775682248813,
300,60,100,0,83,83,14,-0.2675,0.4266666666666667,1,0,0,0.3658535999711603,target,001,part2,2018_Dec_24_1848,fitts,60.02775682248813,
200,15,200,0,84,84,21,-0.15125,0.5866666666666667,1,0,0,0.44861179997678846,target,001,part2,2018_Dec_24_1848,fitts,60.02775682248813,
400,45,200,0,85,85,31,-0.205,0.3711111111111111,1,0,0,0.44844910001847893,target,001,part2,2018_Dec_24_1848,fitts,60.02775682248813,
300,60,300,0,86,86,54,-0.2175,0.16444444444444445,1,0,0,0.5490965000353754,target,001,part2,2018_Dec_24_1848,fitts,60.02775682248813,
300,75,400,0,87,87,78,-0.26375,-0.1688888888888889,1,0,0,0.465408300049603,target,001,part2,2018_Dec_24_1848,fitts,60.02775682248813,
200,60,500,0,88,88,93,-0.0725,-0.3422222222222222,1,0,0,0.9647379000671208,target,001,part2,2018_Dec_24_1848,fitts,60.02775682248813,
300,75,500,0,89,89,98,-0.21625,-0.3422222222222222,1,0,0,0.7648787000216544,target,001,part2,2018_Dec_24_1848,fitts,60.02775682248813,
100,30,300,0,90,90,44,-0.06125,0.3422222222222222,1,0,0,1.1141013000160456,target,001,part2,2018_Dec_24_1848,fitts,60.02775682248813,
300,60,500,0,91,91,94,-0.07125,-0.2866666666666667,1,0,0,0.6815316999563947,target,001,part2,2018_Dec_24_1848,fitts,60.02775682248813,
400,30,200,0,92,92,27,-0.2,0.44666666666666666,1,0,0,0.4139654999598861,target,001,part2,2018_Dec_24_1848,fitts,60.02775682248813,
100,45,300,0,93,93,48,-0.125,0.19555555555555557,1,0,0,0.7480862999800593,target,001,part2,2018_Dec_24_1848,fitts,60.02775682248813,
400,60,400,0,94,94,75,-0.19875,-0.13333333333333333,1,0,0,0.4989634999074042,target,001,part2,2018_Dec_24_1848,fitts,60.02775682248813,
100,45,200,0,95,95,28,-0.19,0.35555555555555557,1,0,0,0.532054299954325,target,001,part2,2018_Dec_24_1848,fitts,60.02775682248813,
100,15,200,0,96,96,20,-0.13,0.54,1,0,0,0.765218700049445,target,001,part2,2018_Dec_24_1848,fitts,60.02775682248813,
300,30,500,0,97,97,86,0.19875,0.15333333333333332,1,0,0,0.830260599963367,target,001,part2,2018_Dec_24_1848,fitts,60.02775682248813,
200,75,300,0,98,98,57,-0.2575,0.02666666666666667,1,0,0,0.6819237000308931,target,001,part2,2018_Dec_24_1848,fitts,60.02775682248813,
100,15,300,0,99,99,40,-0.02,0.49777777777777776,1,0,0,0.8661999000469223,target,001,part2,2018_Dec_24_1848,fitts,60.02775682248813,
200,60,400,1,0,100,73,-0.11125,-0.09333333333333334,1,0,0,0.7152103999396786,target,001,part2,2018_Dec_24_1848,fitts,60.02775682248813,
300,45,400,1,1,101,70,0.08,-0.06,1,0,0,0.49864220002200454,target,001,part2,2018_Dec_24_1848,fitts,60.02775682248813,
400,45,200,1,2,102,31,-0.18875,0.3288888888888889,1,0,0,0.5315189000684768,target,001,part2,2018_Dec_24_1848,fitts,60.02775682248813,
100,30,500,1,3,103,84,0.1975,0.09555555555555556,1,0,0,1.0814233999699354,target,001,part2,2018_Dec_24_1848,fitts,60.02775682248813,
400,15,500,1,4,104,83,0.19125,0.3511111111111111,1,0,0,0.581525299930945,target,001,part2,2018_Dec_24_1848,fitts,60.02775682248813,
200,15,300,1,5,105,41,-0.01,0.4488888888888889,1,0,0,0.7818438999820501,target,001,part2,2018_Dec_24_1848,fitts,60.02775682248813,
100,30,300,1,6,106,44,-0.0775,0.3466666666666667,1,0,0,0.7817848999984562,target,001,part2,2018_Dec_24_1848,fitts,60.02775682248813,
100,30,100,1,7,107,4,-0.2775,0.5577777777777778,1,0,0,0.9817027999088168,target,001,part2,2018_Dec_24_1848,fitts,60.02775682248813,
400,45,300,1,8,108,51,-0.08125,0.2777777777777778,1,0,0,0.465156500111334,target,001,part2,2018_Dec_24_1848,fitts,60.02775682248813,
100,15,300,1,9,109,40,-0.01625,0.4866666666666667,1,0,0,1.414325900026597,target,001,part2,2018_Dec_24_1848,fitts,60.02775682248813,
400,75,300,1,10,110,59,-0.27625,-0.04,1,0,0,0.4649936000350863,target,001,part2,2018_Dec_24_1848,fitts,60.02775682248813,
300,60,300,1,11,111,54,-0.15625,0.03333333333333333,1,0,0,0.4980345999356359,target,001,part2,2018_Dec_24_1848,fitts,60.02775682248813,
200,75,500,1,12,112,97,-0.23,-0.37555555555555553,1,0,0,0.8815787000348791,target,001,part2,2018_Dec_24_1848,fitts,60.02775682248813,
400,60,500,1,13,113,95,-0.06125,-0.44,1,0,0,0.4988032999681309,target,001,part2,2018_Dec_24_1848,fitts,60.02775682248813,
200,45,400,1,14,114,69,-0.07625,0.04666666666666667,1,0,0,0.5650127000408247,target,001,part2,2018_Dec_24_1848,fitts,60.02775682248813,
400,60,100,1,15,115,15,-0.30875,0.43777777777777777,1,0,0,0.34869399992749095,target,001,part2,2018_Dec_24_1848,fitts,60.02775682248813,
100,45,500,1,16,116,88,0.04625,-0.09555555555555556,1,0,0,0.9466875999933109,target,001,part2,2018_Dec_24_1848,fitts,60.02775682248813,
400,15,200,1,17,117,23,-0.17625,0.5777777777777777,1,0,0,0.43272699997760355,target,001,part2,2018_Dec_24_1848,fitts,60.02775682248813,
400,15,400,1,18,118,63,0.10625,0.44,1,0,0,0.4985396999400109,target,001,part2,2018_Dec_24_1848,fitts,60.02775682248813,
300,30,400,1,19,119,66,0.05375,0.30444444444444446,1,0,0,0.6150908999843523,target,001,part2,2018_Dec_24_1848,fitts,60.02775682248813,
100,30,400,1,20,120,64,0.0625,0.22444444444444445,1,0,0,1.5806947000091895,target,001,part2,2018_Dec_24_1848,fitts,60.02775682248813,
400,60,200,1,21,121,35,-0.22875,0.3466666666666667,1,0,0,0.43203129991889,target,001,part2,2018_Dec_24_1848,fitts,60.02775682248813,
300,75,400,1,22,122,78,-0.21375,-0.1711111111111111,1,0,0,0.6484767999500036,target,001,part2,2018_Dec_24_1848,fitts,60.02775682248813,
100,15,200,1,23,123,20,-0.13875,0.5288888888888889,1,0,0,1.097657399950549,target,001,part2,2018_Dec_24_1848,fitts,60.02775682248813,
400,75,500,1,24,124,99,-0.21,-0.4266666666666667,1,0,0,0.6314267000416294,target,001,part2,2018_Dec_24_1848,fitts,60.02775682248813,
300,60,100,1,25,125,14,-0.315,0.44222222222222224,1,0,0,0.4986303000478074,target,001,part2,2018_Dec_24_1848,fitts,60.02775682248813,
100,45,300,1,26,126,48,-0.10125,0.18222222222222223,1,0,0,0.6817993000149727,target,001,part2,2018_Dec_24_1848,fitts,60.02775682248813,
200,75,400,1,27,127,77,-0.24,-0.18444444444444444,1,0,0,0.7156760999932885,target,001,part2,2018_Dec_24_1848,fitts,60.02775682248813,
200,45,100,1,28,128,9,-0.3075,0.47333333333333333,1,0,0,0.5486968000186607,target,001,part2,2018_Dec_24_1848,fitts,60.02775682248813,
400,45,400,1,29,129,71,-0.0675,0.051111111111111114,1,0,0,0.5493544000200927,target,001,part2,2018_Dec_24_1848,fitts,60.02775682248813,
100,75,200,1,30,130,36,-0.33875,0.28,1,0,0,0.6326599998865277,target,001,part2,2018_Dec_24_1848,fitts,60.02775682248813,
400,60,300,1,31,131,55,-0.22,0.14888888888888888,1,0,0,0.41472409991547465,target,001,part2,2018_Dec_24_1848,fitts,60.02775682248813,
100,45,400,1,32,132,68,-0.01375,0.03111111111111111,1,0,0,0.8990429999539629,target,001,part2,2018_Dec_24_1848,fitts,60.02775682248813,
200,30,200,1,33,133,25,-0.1725,0.44222222222222224,1,0,0,0.6318997000344098,target,001,part2,2018_Dec_24_1848,fitts,60.02775682248813,
300,75,500,1,34,134,98,-0.2525,-0.32,1,0,0,0.6822466000448912,target,001,part2,2018_Dec_24_1848,fitts,60.02775682248813,
300,45,200,1,35,135,30,-0.2075,0.32,1,0,0,0.6650775999296457,target,001,part2,2018_Dec_24_1848,fitts,60.02775682248813,
200,45,500,1,36,136,89,0.0525,-0.13111111111111112,1,0,0,0.7482840999728069,target,001,part2,2018_Dec_24_1848,fitts,60.02775682248813,
200,45,300,1,37,137,49,-0.11625,0.18,1,0,0,0.7152796000009403,target,001,part2,2018_Dec_24_1848,fitts,60.02775682248813,
100,15,100,1,38,138,0,-0.26125,0.6422222222222222,1,0,0,0.5486507000168785,target,001,part2,2018_Dec_24_1848,fitts,60.02775682248813,
200,30,300,1,39,139,45,-0.08875,0.3333333333333333,1,0,0,0.6652074999874458,target,001,part2,2018_Dec_24_1848,fitts,60.02775682248813,
300,75,100,1,40,140,18,-0.3325,0.4577777777777778,1,0,0,0.4486793999094516,target,001,part2,2018_Dec_24_1848,fitts,60.02775682248813,
400,30,400,1,41,141,67,0.0675,0.21777777777777776,1,0,0,0.5809724999126047,target,001,part2,2018_Dec_24_1848,fitts,60.02775682248813,
400,75,100,1,42,142,19,-0.32875,0.43777777777777777,1,0,0,0.3645374000770971,target,001,part2,2018_Dec_24_1848,fitts,60.02775682248813,
300,45,500,1,43,143,90,0.0775,-0.08222222222222222,1,0,0,0.565081899985671,target,001,part2,2018_Dec_24_1848,fitts,60.02775682248813,
300,75,300,1,44,144,58,-0.2775,0.2288888888888889,1,0,0,0.4824567000614479,target,001,part2,2018_Dec_24_1848,fitts,60.02775682248813,
400,45,500,1,45,145,91,0.0225,-0.03111111111111111,1,0,0,0.5816793999401852,target,001,part2,2018_Dec_24_1848,fitts,60.02775682248813,
200,75,300,1,46,146,57,-0.28125,0.07111111111111111,1,0,0,0.6483296001097187,target,001,part2,2018_Dec_24_1848,fitts,60.02775682248813,
400,60,400,1,47,147,75,-0.17125,-0.08888888888888889,1,0,0,0.5484725999413058,target,001,part2,2018_Dec_24_1848,fitts,60.02775682248813,
100,60,400,1,48,148,72,-0.12875,-0.08888888888888889,1,0,0,0.764740000013262,target,001,part2,2018_Dec_24_1848,fitts,60.02775682248813,
100,60,500,1,49,149,92,-0.05,-0.27111111111111114,1,0,0,0.7322450999636203,target,001,part2,2018_Dec_24_1848,fitts,60.02775682248813,
300,30,500,1,50,150,86,0.18375,0.07333333333333333,1,0,0,0.5165599000174552,target,001,part2,2018_Dec_24_1848,fitts,60.02775682248813,
400,30,200,1,51,151,27,-0.125,0.4688888888888889,1,0,0,0.3984428000403568,target,001,part2,2018_Dec_24_1848,fitts,60.02775682248813,
100,15,400,1,52,152,60,0.08875,0.4444444444444444,1,0,0,0.6985837999964133,target,001,part2,2018_Dec_24_1848,fitts,60.02775682248813,
300,45,100,1,53,153,10,-0.215,0.46444444444444444,1,0,0,0.38266160001512617,target,001,part2,2018_Dec_24_1848,fitts,60.02775682248813,
200,15,200,1,54,154,21,-0.145,0.5688888888888889,1,0,0,0.43245740002021194,target,001,part2,2018_Dec_24_1848,fitts,60.02775682248813,
100,15,500,1,55,155,80,0.21875,0.3622222222222222,1,0,0,0.8980903000338003,target,001,part2,2018_Dec_24_1848,fitts,60.02775682248813,
300,45,300,1,56,156,50,-0.1125,0.13333333333333333,1,0,0,0.4653530999785289,target,001,part2,2018_Dec_24_1848,fitts,60.02775682248813,
200,60,300,1,57,157,53,-0.175,0.09777777777777778,1,0,0,0.7317111000884324,target,001,part2,2018_Dec_24_1848,fitts,60.02775682248813,
300,15,300,1,58,158,42,-0.0775,0.5355555555555556,1,0,0,0.5157076000468805,target,001,part2,2018_Dec_24_1848,fitts,60.02775682248813,
300,30,200,1,59,159,26,-0.18625,0.4688888888888889,1,0,0,0.6318453999701887,target,001,part2,2018_Dec_24_1848,fitts,60.02775682248813,
100,45,100,1,60,160,8,-0.2975,0.5111111111111111,1,0,0,0.7983267999952659,target,001,part2,2018_Dec_24_1848,fitts,60.02775682248813,
300,60,400,1,61,161,74,-0.12125,-0.08888888888888889,1,0,0,0.6982585999649018,target,001,part2,2018_Dec_24_1848,fitts,60.02775682248813,
200,15,400,1,62,162,61,0.105,0.4622222222222222,1,0,0,0.5654167000902817,target,001,part2,2018_Dec_24_1848,fitts,60.02775682248813,
100,60,100,1,63,163,12,-0.3075,0.47333333333333333,1,0,0,0.5474913999205455,target,001,part2,2018_Dec_24_1848,fitts,60.02775682248813,
400,15,300,1,64,164,43,0.01875,0.5022222222222222,1,0,0,0.46523630002047867,target,001,part2,2018_Dec_24_1848,fitts,60.02775682248813,
400,30,100,1,65,165,7,-0.21125,0.5444444444444444,1,0,0,0.3486424000002444,target,001,part2,2018_Dec_24_1848,fitts,60.02775682248813,
300,30,100,1,66,166,6,-0.25375,0.5622222222222222,1,0,0,0.36513509997166693,target,001,part2,2018_Dec_24_1848,fitts,60.02775682248813,
400,75,400,1,67,167,79,-0.20375,-0.2088888888888889,1,0,0,0.4655103998957202,target,001,part2,2018_Dec_24_1848,fitts,60.02775682248813,
100,60,200,1,68,168,32,-0.295,0.3111111111111111,1,0,0,0.6313027000287548,target,001,part2,2018_Dec_24_1848,fitts,60.02775682248813,
400,30,500,1,69,169,87,0.2375,0.015555555555555555,1,0,0,0.44848859997000545,target,001,part2,2018_Dec_24_1848,fitts,60.02775682248813,
200,15,500,1,70,170,81,0.20625,0.4,1,0,0,0.5654203000012785,target,001,part2,2018_Dec_24_1848,fitts,60.02775682248813,
300,15,400,1,71,171,62,0.10375,0.43333333333333335,1,0,0,0.5483550999779254,target,001,part2,2018_Dec_24_1848,fitts,60.02775682248813,
200,30,500,1,72,172,85,0.18875,0.14,1,0,0,0.6322139999829233,target,001,part2,2018_Dec_24_1848,fitts,60.02775682248813,
100,75,300,1,73,173,56,-0.28125,0.09111111111111111,1,0,0,0.5486549000488594,target,001,part2,2018_Dec_24_1848,fitts,60.02775682248813,
200,75,100,1,74,174,17,-0.33,0.43777777777777777,1,0,0,0.44928950001485646,target,001,part2,2018_Dec_24_1848,fitts,60.02775682248813,
100,75,400,1,75,175,76,-0.2525,-0.1511111111111111,1,0,0,0.7651735000545159,target,001,part2,2018_Dec_24_1848,fitts,60.02775682248813,
300,60,500,1,76,176,94,-0.12625,-0.26,1,0,0,0.6149896000279114,target,001,part2,2018_Dec_24_1848,fitts,60.02775682248813,
200,60,500,1,77,177,93,-0.10375,-0.3,1,0,0,0.6819415999343619,target,001,part2,2018_Dec_24_1848,fitts,60.02775682248813,
100,30,200,1,78,178,24,-0.16375,0.4577777777777778,1,0,0,0.7813558999914676,target,001,part2,2018_Dec_24_1848,fitts,60.02775682248813,
100,75,500,1,79,179,96,-0.21375,-0.3933333333333333,1,0,0,0.7821709000272676,target,001,part2,2018_Dec_24_1848,fitts,60.02775682248813,
200,60,100,1,80,180,13,-0.3775,0.5133333333333333,1,0,0,0.5319426999194548,target,001,part2,2018_Dec_24_1848,fitts,60.02775682248813,
200,60,200,1,81,181,33,-0.26875,0.3,1,0,0,0.4985956000164151,target,001,part2,2018_Dec_24_1848,fitts,60.02775682248813,
100,45,200,1,82,182,28,-0.19375,0.33111111111111113,1,0,0,0.549065800034441,target,001,part2,2018_Dec_24_1848,fitts,60.02775682248813,
400,30,300,1,83,183,47,-0.13875,0.38666666666666666,1,0,0,0.5152369999559596,target,001,part2,2018_Dec_24_1848,fitts,60.02775682248813,
300,60,200,1,84,184,34,-0.21125,0.2733333333333333,1,0,0,0.415715100010857,target,001,part2,2018_Dec_24_1848,fitts,60.02775682248813,
300,15,200,1,85,185,22,-0.2,0.58,1,0,0,0.6147517999634147,target,001,part2,2018_Dec_24_1848,fitts,60.02775682248813,
300,75,200,1,86,186,38,-0.3225,0.26,1,0,0,0.7152382999192923,target,001,part2,2018_Dec_24_1848,fitts,60.02775682248813,
400,45,100,1,87,187,11,-0.245,0.38222222222222224,1,0,0,0.34952739998698235,target,001,part2,2018_Dec_24_1848,fitts,60.02775682248813,
200,75,200,1,88,188,37,-0.30625,0.2222222222222222,1,0,0,0.515332999988459,target,001,part2,2018_Dec_24_1848,fitts,60.02775682248813,
400,15,100,1,89,189,3,-0.31625,0.5666666666666667,1,0,0,0.4161915999138728,target,001,part2,2018_Dec_24_1848,fitts,60.02775682248813,
400,75,200,1,90,190,39,-0.33375,0.29777777777777775,1,0,0,0.46526720002293587,target,001,part2,2018_Dec_24_1848,fitts,60.02775682248813,
200,45,200,1,91,191,29,-0.1875,0.32666666666666666,1,0,0,0.5486157999839634,target,001,part2,2018_Dec_24_1848,fitts,60.02775682248813,
200,15,100,1,92,192,1,-0.23875,0.5777777777777777,1,0,0,0.4484426999697462,target,001,part2,2018_Dec_24_1848,fitts,60.02775682248813,
200,30,400,1,93,193,65,0.14875,0.11555555555555555,1,0,0,0.5487016999395564,target,001,part2,2018_Dec_24_1848,fitts,60.02775682248813,
300,15,100,1,94,194,2,-0.27,0.5466666666666666,1,0,0,0.38192269997671247,target,001,part2,2018_Dec_24_1848,fitts,60.02775682248813,
100,75,100,1,95,195,16,-0.33375,0.4777777777777778,1,0,0,0.5988386999815702,target,001,part2,2018_Dec_24_1848,fitts,60.02775682248813,
300,15,500,1,96,196,82,0.2125,0.3333333333333333,1,0,0,1.1806263000471517,target,001,part2,2018_Dec_24_1848,fitts,60.02775682248813,
100,60,300,1,97,197,52,-0.1975,0.08888888888888889,1,0,0,1.0478006000630558,target,001,part2,2018_Dec_24_1848,fitts,60.02775682248813,
300,30,300,1,98,198,46,-0.13375,0.3622222222222222,1,0,0,0.48020959994755685,target,001,part2,2018_Dec_24_1848,fitts,60.02775682248813,
200,30,100,1,99,199,5,-0.30125,0.5577777777777778,1,0,0,0.36518349999096245,target,001,part2,2018_Dec_24_1848,fitts,60.02775682248813,
100,60,100,2,0,200,12,-0.29625,0.46,1,0,0,0.5321498999837786,target,001,part2,2018_Dec_24_1848,fitts,60.02775682248813,
100,45,500,2,1,201,88,0.05625,-0.14444444444444443,1,0,0,0.9143167999573052,target,001,part2,2018_Dec_24_1848,fitts,60.02775682248813,
300,30,300,2,2,202,46,-0.01,0.3288888888888889,1,0,0,0.5156437000259757,target,001,part2,2018_Dec_24_1848,fitts,60.02775682248813,
200,60,300,2,3,203,53,-0.17875,0.07333333333333333,1,0,0,0.6814396999543533,target,001,part2,2018_Dec_24_1848,fitts,60.02775682248813,
300,15,100,2,4,204,2,-0.27625,0.5711111111111111,1,0,0,0.44915570004377514,target,001,part2,2018_Dec_24_1848,fitts,60.02775682248813,
300,45,100,2,5,205,10,-0.265,0.5311111111111111,1,0,0,0.4984955999534577,target,001,part2,2018_Dec_24_1848,fitts,60.02775682248813,
400,45,100,2,6,206,11,-0.31375,0.5333333333333333,1,0,0,0.3824384999461472,target,001,part2,2018_Dec_24_1848,fitts,60.02775682248813,
200,60,400,2,7,207,73,-0.11,-0.18,1,0,0,0.5317918000509962,target,001,part2,2018_Dec_24_1848,fitts,60.02775682248813,
300,30,100,2,8,208,6,-0.2825,0.5422222222222223,1,0,0,0.448878200026229,target,001,part2,2018_Dec_24_1848,fitts,60.02775682248813,
400,45,300,2,9,209,51,-0.16875,0.22,1,0,0,0.43147139996290207,target,001,part2,2018_Dec_24_1848,fitts,60.02775682248813,
200,30,400,2,10,210,65,0.02875,0.18,1,0,0,0.5818093999987468,target,001,part2,2018_Dec_24_1848,fitts,60.02775682248813,
100,15,500,2,11,211,80,0.2475,0.38,1,0,0,0.7490101000294089,target,001,part2,2018_Dec_24_1848,fitts,60.02775682248813,
200,30,300,2,12,212,45,-0.06,0.3288888888888889,1,0,0,0.6983705000020564,target,001,part2,2018_Dec_24_1848,fitts,60.02775682248813,
100,60,400,2,13,213,72,-0.13875,-0.07111111111111111,1,0,0,0.681968400022015,target,001,part2,2018_Dec_24_1848,fitts,60.02775682248813,
200,15,100,2,14,214,1,-0.27375,0.6111111111111112,1,0,0,0.6987455999478698,target,001,part2,2018_Dec_24_1848,fitts,60.02775682248813,
300,30,400,2,15,215,66,0.03875,0.21777777777777776,1,0,0,0.7645151999313384,target,001,part2,2018_Dec_24_1848,fitts,60.02775682248813,
200,75,200,2,16,216,37,-0.29125,0.22,1,0,0,0.5984304000157863,target,001,part2,2018_Dec_24_1848,fitts,60.02775682248813,
200,15,500,2,17,217,81,0.2625,0.37333333333333335,1,0,0,0.7150166999781504,target,001,part2,2018_Dec_24_1848,fitts,60.02775682248813,
100,30,100,2,18,218,4,-0.25875,0.5466666666666666,1,0,0,0.6651099999435246,target,001,part2,2018_Dec_24_1848,fitts,60.02775682248813,
100,75,500,2,19,219,96,-0.20875,-0.38222222222222224,1,0,0,0.86446229997091,target,001,part2,2018_Dec_24_1848,fitts,60.02775682248813,
100,75,300,2,20,220,56,-0.275,0.02666666666666667,1,0,0,0.9313535999972373,target,001,part2,2018_Dec_24_1848,fitts,60.02775682248813,
300,60,300,2,21,221,54,-0.21875,0.15777777777777777,1,0,0,0.44872110011056066,target,001,part2,2018_Dec_24_1848,fitts,60.02775682248813,
100,15,400,2,22,222,60,0.10625,0.4311111111111111,1,0,0,0.6989174999762326,target,001,part2,2018_Dec_24_1848,fitts,60.02775682248813,
100,60,300,2,23,223,52,-0.18375,0.1111111111111111,1,0,0,0.8153185000410303,target,001,part2,2018_Dec_24_1848,fitts,60.02775682248813,
400,15,500,2,24,224,83,0.305,0.4444444444444444,1,0,0,0.49858859996311367,target,001,part2,2018_Dec_24_1848,fitts,60.02775682248813,
200,15,400,2,25,225,61,0.12375,0.4022222222222222,1,0,0,0.7988312999950722,target,001,part2,2018_Dec_24_1848,fitts,60.02775682248813,
400,45,200,2,26,226,31,-0.175,0.38666666666666666,1,0,0,0.36537230003159493,target,001,part2,2018_Dec_24_1848,fitts,60.02775682248813,
400,75,300,2,27,227,59,-0.2725,0.08,1,0,0,0.6149860000004992,target,001,part2,2018_Dec_24_1848,fitts,60.02775682248813,
300,75,200,2,28,228,38,-0.2825,0.20444444444444446,1,0,0,0.48167560005094856,target,001,part2,2018_Dec_24_1848,fitts,60.02775682248813,
300,45,500,2,29,229,90,0.0925,-0.22666666666666666,1,0,0,0.598456299980171,target,001,part2,2018_Dec_24_1848,fitts,60.02775682248813,
100,30,400,2,30,230,64,0.065,0.2644444444444444,1,0,0,0.7481243999209255,target,001,part2,2018_Dec_24_1848,fitts,60.02775682248813,
200,30,500,2,31,231,85,0.18125,0.1511111111111111,1,0,0,0.5984534999588504,target,001,part2,2018_Dec_24_1848,fitts,60.02775682248813,
300,60,100,2,32,232,14,-0.275,0.4666666666666667,1,0,0,0.5319919000612572,target,001,part2,2018_Dec_24_1848,fitts,60.02775682248813,
400,30,500,2,33,233,87,0.22875,-0.06,1,0,0,0.5487433000234887,target,001,part2,2018_Dec_24_1848,fitts,60.02775682248813,
200,45,500,2,34,234,89,0.11375,-0.12444444444444444,1,0,0,0.76495820004493,target,001,part2,2018_Dec_24_1848,fitts,60.02775682248813,
400,30,200,2,35,235,27,-0.09375,0.3688888888888889,1,0,0,0.43253059999551624,target,001,part2,2018_Dec_24_1848,fitts,60.02775682248813,
300,75,100,2,36,236,18,-0.37375,0.54,1,0,0,0.4488110999809578,target,001,part2,2018_Dec_24_1848,fitts,60.02775682248813,
400,45,400,2,37,237,71,-0.01375,0.09111111111111111,1,0,0,0.5146261999616399,target,001,part2,2018_Dec_24_1848,fitts,60.02775682248813,
400,30,400,2,38,238,67,0.04875,0.2,1,0,0,0.6311916999984533,target,001,part2,2018_Dec_24_1848,fitts,60.02775682248813,
200,75,500,2,39,239,97,-0.20875,-0.39555555555555555,1,0,0,1.5988879000069574,target,001,part2,2018_Dec_24_1848,fitts,60.02775682248813,
200,15,300,2,40,240,41,-0.01125,0.5177777777777778,1,0,0,1.680450399988331,target,001,part2,2018_Dec_24_1848,fitts,60.02775682248813,
400,60,300,2,41,241,55,-0.2225,0.11777777777777777,1,0,0,0.7974200999597088,target,001,part2,2018_Dec_24_1848,fitts,60.02775682248813,
100,30,500,2,42,242,84,0.16625,0.08888888888888889,1,0,0,0.8319255999522284,target,001,part2,2018_Dec_24_1848,fitts,60.02775682248813,
300,75,400,2,43,243,78,-0.22125,-0.11777777777777777,1,0,0,0.5321475000819191,target,001,part2,2018_Dec_24_1848,fitts,60.02775682248813,
100,45,400,2,44,244,68,-0.01125,0.028888888888888888,1,0,0,0.764945900067687,target,001,part2,2018_Dec_24_1848,fitts,60.02775682248813,
100,45,300,2,45,245,48,-0.13,0.2111111111111111,1,0,0,1.0477536999387667,target,001,part2,2018_Dec_24_1848,fitts,60.02775682248813,
200,75,300,2,46,246,57,-0.23625,-0.03777777777777778,1,0,0,0.5486581000732258,target,001,part2,2018_Dec_24_1848,fitts,60.02775682248813,
400,75,200,2,47,247,39,-0.3525,0.3688888888888889,1,0,0,0.43323800002690405,target,001,part2,2018_Dec_24_1848,fitts,60.02775682248813,
300,60,200,2,48,248,34,-0.15625,0.17333333333333334,1,0,0,0.39893070003017783,target,001,part2,2018_Dec_24_1848,fitts,60.02775682248813,
200,75,400,2,49,249,77,-0.23625,-0.20666666666666667,1,0,0,0.7983755000168458,target,001,part2,2018_Dec_24_1848,fitts,60.02775682248813,
400,30,100,2,50,250,7,-0.285,0.5355555555555556,1,0,0,0.44862559996545315,target,001,part2,2018_Dec_24_1848,fitts,60.02775682248813,
400,15,400,2,51,251,63,0.16875,0.4488888888888889,1,0,0,0.548675199970603,target,001,part2,2018_Dec_24_1848,fitts,60.02775682248813,
100,60,200,2,52,252,32,-0.2425,0.25555555555555554,1,0,0,0.5650857000146061,target,001,part2,2018_Dec_24_1848,fitts,60.02775682248813,
200,30,100,2,53,253,5,-0.30875,0.5622222222222222,1,0,0,0.44851949997246265,target,001,part2,2018_Dec_24_1848,fitts,60.02775682248813,
300,75,500,2,54,254,98,-0.22625,-0.3288888888888889,1,0,0,0.6487976000644267,target,001,part2,2018_Dec_24_1848,fitts,60.02775682248813,
400,60,500,2,55,255,95,-0.0575,-0.37333333333333335,1,0,0,0.7484010000480339,target,001,part2,2018_Dec_24_1848,fitts,60.02775682248813,
300,60,500,2,56,256,94,-0.03875,-0.32222222222222224,1,0,0,0.5803153000306338,target,001,part2,2018_Dec_24_1848,fitts,60.02775682248813,
400,75,100,2,57,257,19,-0.31375,0.5111111111111111,1,0,0,0.3653413999127224,target,001,part2,2018_Dec_24_1848,fitts,60.02775682248813,
300,45,200,2,58,258,30,-0.2125,0.4,1,0,0,0.5649307999992743,target,001,part2,2018_Dec_24_1848,fitts,60.02775682248813,
200,60,100,2,59,259,13,-0.3075,0.4311111111111111,1,0,0,0.48242260003462434,target,001,part2,2018_Dec_24_1848,fitts,60.02775682248813,
200,45,400,2,60,260,69,-0.06625,0.08666666666666667,1,0,0,0.5481647000415251,target,001,part2,2018_Dec_24_1848,fitts,60.02775682248813,
300,45,400,2,61,261,70,0.0125,-0.013333333333333334,1,0,0,0.6317401999840513,target,001,part2,2018_Dec_24_1848,fitts,60.02775682248813,
300,15,500,2,62,262,82,0.19,0.34444444444444444,1,0,0,0.5642236999701709,target,001,part2,2018_Dec_24_1848,fitts,60.02775682248813,
200,75,100,2,63,263,17,-0.35125,0.4311111111111111,1,0,0,0.49966879992280155,target,001,part2,2018_Dec_24_1848,fitts,60.02775682248813,
200,60,200,2,64,264,33,-0.24875,0.28888888888888886,1,0,0,0.44870730000548065,target,001,part2,2018_Dec_24_1848,fitts,60.02775682248813,
300,30,200,2,65,265,26,-0.12375,0.49777777777777776,1,0,0,0.5154036999447271,target,001,part2,2018_Dec_24_1848,fitts,60.02775682248813,
400,15,300,2,66,266,43,-0.035,0.4488888888888889,1,0,0,0.49862060009036213,target,001,part2,2018_Dec_24_1848,fitts,60.02775682248813,
400,30,300,2,67,267,47,-0.055,0.3622222222222222,1,0,0,0.5320362000493333,target,001,part2,2018_Dec_24_1848,fitts,60.02775682248813,
100,75,100,2,68,268,16,-0.33375,0.4444444444444444,1,0,0,0.6994452000362799,target,001,part2,2018_Dec_24_1848,fitts,60.02775682248813,
200,15,200,2,69,269,21,-0.15875,0.5911111111111111,1,0,0,0.5646180999465287,target,001,part2,2018_Dec_24_1848,fitts,60.02775682248813,
400,75,500,2,70,270,99,-0.24375,-0.6355555555555555,1,0,0,0.5153682999080047,target,001,part2,2018_Dec_24_1848,fitts,60.02775682248813,
300,15,400,2,71,271,62,0.11125,0.44222222222222224,1,0,0,0.7649158999556676,target,001,part2,2018_Dec_24_1848,fitts,60.02775682248813,
400,15,100,2,72,272,3,-0.16375,0.4711111111111111,1,0,0,0.3659619999816641,target,001,part2,2018_Dec_24_1848,fitts,60.02775682248813,
200,45,100,2,73,273,9,-0.31625,0.49777777777777776,1,0,0,0.364684599917382,target,001,part2,2018_Dec_24_1848,fitts,60.02775682248813,
200,30,200,2,74,274,25,-0.1675,0.4711111111111111,1,0,0,0.48220430000219494,target,001,part2,2018_Dec_24_1848,fitts,60.02775682248813,
300,75,300,2,75,275,58,-0.285,0.11333333333333333,1,0,0,0.5815175999887288,target,001,part2,2018_Dec_24_1848,fitts,60.02775682248813,
400,45,500,2,76,276,91,0.02375,-0.08666666666666667,1,0,0,0.4656925000017509,target,001,part2,2018_Dec_24_1848,fitts,60.02775682248813,
100,15,300,2,77,277,40,-0.00625,0.5111111111111111,1,0,0,0.7488234000047669,target,001,part2,2018_Dec_24_1848,fitts,60.02775682248813,
400,15,200,2,78,278,23,-0.13875,0.54,1,0,0,0.44904149998910725,target,001,part2,2018_Dec_24_1848,fitts,60.02775682248813,
300,15,300,2,79,279,42,-0.0775,0.52,1,0,0,0.5003451000666246,target,001,part2,2018_Dec_24_1848,fitts,60.02775682248813,
100,75,200,2,80,280,36,-0.31125,0.21555555555555556,1,0,0,0.7147435999941081,target,001,part2,2018_Dec_24_1848,fitts,60.02775682248813,
100,30,200,2,81,281,24,-0.17,0.45111111111111113,1,0,0,0.6647924000862986,target,001,part2,2018_Dec_24_1848,fitts,60.02775682248813,
100,60,500,2,82,282,92,-0.05875,-0.31777777777777777,1,0,0,0.8477016999386251,target,001,part2,2018_Dec_24_1848,fitts,60.02775682248813,
200,60,500,2,83,283,93,-0.07375,-0.2777777777777778,1,0,0,0.6982395999366418,target,001,part2,2018_Dec_24_1848,fitts,60.02775682248813,
400,75,400,2,84,284,79,-0.325,-0.2288888888888889,1,0,0,0.4487586000468582,target,001,part2,2018_Dec_24_1848,fitts,60.02775682248813,
400,60,400,2,85,285,75,-0.08125,-0.04666666666666667,1,0,0,0.3989359999541193,target,001,part2,2018_Dec_24_1848,fitts,60.02775682248813,
400,60,100,2,86,286,15,-0.325,0.4577777777777778,1,0,0,0.34935889998450875,target,001,part2,2018_Dec_24_1848,fitts,60.02775682248813,
100,30,300,2,87,287,44,-0.03,0.3377777777777778,1,0,0,0.8143581999465823,target,001,part2,2018_Dec_24_1848,fitts,60.02775682248813,
300,45,300,2,88,288,50,-0.11125,0.2822222222222222,1,0,0,0.48192729998845607,target,001,part2,2018_Dec_24_1848,fitts,60.02775682248813,
100,15,200,2,89,289,20,-0.12,0.5088888888888888,1,0,0,0.6485487000318244,target,001,part2,2018_Dec_24_1848,fitts,60.02775682248813,
200,45,300,2,90,290,49,-0.125,0.18222222222222223,1,0,0,0.6653450999874622,target,001,part2,2018_Dec_24_1848,fitts,60.02775682248813,
300,15,200,2,91,291,22,-0.1375,0.5,1,0,0,0.5648588999174535,target,001,part2,2018_Dec_24_1848,fitts,60.02775682248813,
200,45,200,2,92,292,29,-0.24625,0.35777777777777775,1,0,0,0.6152533000567928,target,001,part2,2018_Dec_24_1848,fitts,60.02775682248813,
100,75,400,2,93,293,76,-0.2525,-0.15777777777777777,1,0,0,0.7325324000557885,target,001,part2,2018_Dec_24_1848,fitts,60.02775682248813,
100,45,200,2,94,294,28,-0.18875,0.3422222222222222,1,0,0,0.6966091000940651,target,001,part2,2018_Dec_24_1848,fitts,60.02775682248813,
300,60,400,2,95,295,74,-0.12375,-0.14444444444444443,1,0,0,0.4987067999318242,target,001,part2,2018_Dec_24_1848,fitts,60.02775682248813,
300,30,500,2,96,296,86,0.18125,0.13777777777777778,1,0,0,0.4980426999973133,target,001,part2,2018_Dec_24_1848,fitts,60.02775682248813,
400,60,200,2,97,297,35,-0.29,0.28888888888888886,1,0,0,0.43202449998352677,target,001,part2,2018_Dec_24_1848,fitts,60.02775682248813,
100,45,100,2,98,298,8,-0.27625,0.5088888888888888,1,0,0,0.7314043999649584,target,001,part2,2018_Dec_24_1848,fitts,60.02775682248813,
100,15,100,2,99,299,0,-0.2475,0.5977777777777777,1,0,0,0.6648626999231055,target,001,part2,2018_Dec_24_1848,fitts,60.02775682248813,
400,45,300,3,0,300,51,-0.0775,0.13555555555555557,1,0,0,0.3987421999918297,target,001,part2,2018_Dec_24_1848,fitts,60.02775682248813,
100,45,400,3,1,301,68,-0.03,0.022222222222222223,1,0,0,0.6816831999458373,target,001,part2,2018_Dec_24_1848,fitts,60.02775682248813,
400,30,300,3,2,302,47,-0.025,0.4177777777777778,1,0,0,0.44879269995726645,target,001,part2,2018_Dec_24_1848,fitts,60.02775682248813,
100,75,400,3,3,303,76,-0.23,-0.20222222222222222,1,0,0,0.7818645000224933,target,001,part2,2018_Dec_24_1848,fitts,60.02775682248813,
300,75,300,3,4,304,58,-0.31875,0.05333333333333334,1,0,0,0.4655270000221208,target,001,part2,2018_Dec_24_1848,fitts,60.02775682248813,
400,60,500,3,5,305,95,-0.13875,-0.2311111111111111,1,0,0,0.4991135000018403,target,001,part2,2018_Dec_24_1848,fitts,60.02775682248813,
200,75,300,3,6,306,57,-0.26625,0.0044444444444444444,1,0,0,0.6489969999529421,target,001,part2,2018_Dec_24_1848,fitts,60.02775682248813,
300,45,100,3,7,307,10,-0.18875,0.3511111111111111,1,0,0,0.3488569000037387,target,001,part2,2018_Dec_24_1848,fitts,60.02775682248813,
200,30,500,3,8,308,85,0.125,0.08666666666666667,1,0,0,0.7651298000710085,target,001,part2,2018_Dec_24_1848,fitts,60.02775682248813,
100,75,100,3,9,309,16,-0.33125,0.4622222222222222,1,0,0,0.6489990000845864,target,001,part2,2018_Dec_24_1848,fitts,60.02775682248813,
400,60,100,3,10,310,15,-0.2875,0.4866666666666667,1,0,0,0.36557400005403906,target,001,part2,2018_Dec_24_1848,fitts,60.02775682248813,
400,45,100,3,11,311,11,-0.28125,0.45111111111111113,1,0,0,0.36528479994740337,target,001,part2,2018_Dec_24_1848,fitts,60.02775682248813,
400,75,300,3,12,312,59,-0.27625,0.09111111111111111,1,0,0,0.4485961999744177,target,001,part2,2018_Dec_24_1848,fitts,60.02775682248813,
300,45,300,3,13,313,50,-0.15125,0.22666666666666666,1,0,0,0.6151645999634638,target,001,part2,2018_Dec_24_1848,fitts,60.02775682248813,
400,30,500,3,14,314,87,0.08,0.24222222222222223,1,0,0,0.5484210000140592,target,001,part2,2018_Dec_24_1848,fitts,60.02775682248813,
400,30,200,3,15,315,27,-0.155,0.4444444444444444,1,0,0,0.498760599992238,target,001,part2,2018_Dec_24_1848,fitts,60.02775682248813,
200,15,100,3,16,316,1,-0.26,0.58,1,0,0,0.6812244000611827,target,001,part2,2018_Dec_24_1848,fitts,60.02775682248813,
400,75,400,3,17,317,79,-0.28375,-0.17777777777777778,1,0,0,0.5485229999758303,target,001,part2,2018_Dec_24_1848,fitts,60.02775682248813,
100,60,300,3,18,318,52,-0.18875,0.07333333333333333,1,0,0,0.7152934999903664,target,001,part2,2018_Dec_24_1848,fitts,60.02775682248813,
200,30,100,3,19,319,5,-0.28375,0.5155555555555555,1,0,0,0.597981599974446,target,001,part2,2018_Dec_24_1848,fitts,60.02775682248813,
100,30,200,3,20,320,24,-0.15875,0.4488888888888889,1,0,0,0.8487009000964463,target,001,part2,2018_Dec_24_1848,fitts,60.02775682248813,
100,45,100,3,21,321,8,-0.27875,0.5044444444444445,1,0,0,0.4814195999642834,target,001,part2,2018_Dec_24_1848,fitts,60.02775682248813,
400,45,200,3,22,322,31,-0.1975,0.4,1,0,0,0.43167379999067634,target,001,part2,2018_Dec_24_1848,fitts,60.02775682248813,
300,45,400,3,23,323,70,-0.07625,0.08222222222222222,1,0,0,0.6319411000004038,target,001,part2,2018_Dec_24_1848,fitts,60.02775682248813,
400,30,100,3,24,324,7,-0.235,0.4911111111111111,1,0,0,0.48156009998638183,target,001,part2,2018_Dec_24_1848,fitts,60.02775682248813,
400,15,300,3,25,325,43,0.06875,0.37333333333333335,1,0,0,0.44833529996685684,target,001,part2,2018_Dec_24_1848,fitts,60.02775682248813,
100,15,400,3,26,326,60,0.11625,0.43777777777777777,1,0,0,0.914942599949427,target,001,part2,2018_Dec_24_1848,fitts,60.02775682248813,
100,60,100,3,27,327,12,-0.305,0.4866666666666667,1,0,0,0.5485765000339597,target,001,part2,2018_Dec_24_1848,fitts,60.02775682248813,
200,45,400,3,28,328,69,0.03125,0.024444444444444446,1,0,0,0.6819820000091568,target,001,part2,2018_Dec_24_1848,fitts,60.02775682248813,
200,15,500,3,29,329,81,0.2575,0.3688888888888889,1,0,0,0.7816708000609651,target,001,part2,2018_Dec_24_1848,fitts,60.02775682248813,
100,30,500,3,30,330,84,0.15625,0.12666666666666668,1,0,0,0.7483740999596193,target,001,part2,2018_Dec_24_1848,fitts,60.02775682248813,
200,75,400,3,31,331,77,-0.24625,-0.23777777777777778,1,0,0,0.5982946999138221,target,001,part2,2018_Dec_24_1848,fitts,60.02775682248813,
200,60,500,3,32,332,93,-0.0475,-0.31333333333333335,1,0,0,0.7151292000198737,target,001,part2,2018_Dec_24_1848,fitts,60.02775682248813,
200,60,400,3,33,333,73,-0.16,-0.08444444444444445,1,0,0,0.6498505000490695,target,001,part2,2018_Dec_24_1848,fitts,60.02775682248813,
100,30,100,3,34,334,4,-0.26625,0.5355555555555556,1,0,0,0.5487184999510646,target,001,part2,2018_Dec_24_1848,fitts,60.02775682248813,
200,15,300,3,35,335,41,-0.03375,0.5066666666666667,1,0,0,0.5487601000349969,target,001,part2,2018_Dec_24_1848,fitts,60.02775682248813,
100,45,500,3,36,336,88,0.07125,-0.12,1,0,0,0.8644683000165969,target,001,part2,2018_Dec_24_1848,fitts,60.02775682248813,
200,45,300,3,37,337,49,-0.13,0.22666666666666666,1,0,0,0.7482360999565572,target,001,part2,2018_Dec_24_1848,fitts,60.02775682248813,
400,15,200,3,38,338,23,-0.085,0.47555555555555556,1,0,0,0.5151868000393733,target,001,part2,2018_Dec_24_1848,fitts,60.02775682248813,
300,75,100,3,39,339,18,-0.37,0.40444444444444444,1,0,0,0.3658890000078827,target,001,part2,2018_Dec_24_1848,fitts,60.02775682248813,
100,75,500,3,40,340,96,-0.22625,-0.4,1,0,0,0.8315206000115722,target,001,part2,2018_Dec_24_1848,fitts,60.02775682248813,
400,75,500,3,41,341,99,-0.2225,-0.3977777777777778,1,0,0,0.5983249000273645,target,001,part2,2018_Dec_24_1848,fitts,60.02775682248813,
400,15,400,3,42,342,63,0.0725,0.43555555555555553,1,0,0,0.44863590004388243,target,001,part2,2018_Dec_24_1848,fitts,60.02775682248813,
300,60,100,3,43,343,14,-0.26875,0.3844444444444444,1,0,0,0.3488399999914691,target,001,part2,2018_Dec_24_1848,fitts,60.02775682248813,
400,45,500,3,44,344,91,0.015,-0.26222222222222225,1,0,0,0.46542530006263405,target,001,part2,2018_Dec_24_1848,fitts,60.02775682248813,
100,15,100,3,45,345,0,-0.26125,0.6133333333333333,1,0,0,0.6304492000490427,target,001,part2,2018_Dec_24_1848,fitts,60.02775682248813,
200,15,400,3,46,346,61,0.13125,0.40444444444444444,1,0,0,1.1639313000487164,target,001,part2,2018_Dec_24_1848,fitts,60.02775682248813,
300,75,200,3,47,347,38,-0.26125,0.24222222222222223,1,0,0,0.5649937000125647,target,001,part2,2018_Dec_24_1848,fitts,60.02775682248813,
200,75,100,3,48,348,17,-0.29,0.4,1,0,0,0.664733299985528,target,001,part2,2018_Dec_24_1848,fitts,60.02775682248813,
300,15,300,3,49,349,42,-0.16125,0.5133333333333333,1,0,0,0.7481681000208482,target,001,part2,2018_Dec_24_1848,fitts,60.02775682248813,
200,30,200,3,50,350,25,-0.1225,0.4622222222222222,1,0,0,0.5321590000530705,target,001,part2,2018_Dec_24_1848,fitts,60.02775682248813,
100,30,300,3,51,351,44,-0.04625,0.33555555555555555,1,0,0,0.8149963999167085,target,001,part2,2018_Dec_24_1848,fitts,60.02775682248813,
400,30,400,3,52,352,67,0.135,0.2,1,0,0,0.5480611000675708,target,001,part2,2018_Dec_24_1848,fitts,60.02775682248813,
100,15,200,3,53,353,20,-0.15875,0.5488888888888889,1,0,0,0.5484824000159279,target,001,part2,2018_Dec_24_1848,fitts,60.02775682248813,
300,30,200,3,54,354,26,-0.26625,0.5266666666666666,1,0,0,0.7633262000745162,target,001,part2,2018_Dec_24_1848,fitts,60.02775682248813,
200,30,300,3,55,355,45,-0.02875,0.29333333333333333,1,0,0,0.5321297000627965,target,001,part2,2018_Dec_24_1848,fitts,60.02775682248813,
300,15,100,3,56,356,2,-0.4275,0.6355555555555555,1,0,0,0.615202400018461,target,001,part2,2018_Dec_24_1848,fitts,60.02775682248813,
200,15,200,3,57,357,21,-0.11625,0.5333333333333333,1,0,0,0.6656331000849605,target,001,part2,2018_Dec_24_1848,fitts,60.02775682248813,
400,60,300,3,58,358,55,-0.205,0.10444444444444445,1,0,0,0.7152837000321597,target,001,part2,2018_Dec_24_1848,fitts,60.02775682248813,
100,60,200,3,59,359,32,-0.25875,0.29777777777777775,1,0,0,0.8316417000023648,target,001,part2,2018_Dec_24_1848,fitts,60.02775682248813,
300,15,500,3,60,360,82,0.25125,0.4488888888888889,1,0,0,0.6489430000074208,target,001,part2,2018_Dec_24_1848,fitts,60.02775682248813,
400,15,100,3,61,361,3,-0.21625,0.5666666666666667,1,0,0,0.5657075999770314,target,001,part2,2018_Dec_24_1848,fitts,60.02775682248813,
300,75,400,3,62,362,78,-0.23875,-0.18,1,0,0,0.7646272999700159,target,001,part2,2018_Dec_24_1848,fitts,60.02775682248813,
200,75,200,3,63,363,37,-0.28625,0.23333333333333334,1,0,0,0.5654642999870703,target,001,part2,2018_Dec_24_1848,fitts,60.02775682248813,
100,45,300,3,64,364,48,-0.09125,0.19333333333333333,1,0,0,0.6485435999929905,target,001,part2,2018_Dec_24_1848,fitts,60.02775682248813,
200,60,300,3,65,365,53,-0.1575,0.07777777777777778,1,0,0,0.6477453999686986,target,001,part2,2018_Dec_24_1848,fitts,60.02775682248813,
300,60,500,3,66,366,94,-0.0475,-0.33555555555555555,1,0,0,0.6819271000567824,target,001,part2,2018_Dec_24_1848,fitts,60.02775682248813,
400,60,400,3,67,367,75,-0.12,-0.008888888888888889,1,0,0,0.3987773999106139,target,001,part2,2018_Dec_24_1848,fitts,60.02775682248813,
100,60,400,3,68,368,72,-0.1125,-0.12222222222222222,1,0,0,1.014551099971868,target,001,part2,2018_Dec_24_1848,fitts,60.02775682248813,
100,15,300,3,69,369,40,-0.0025,0.4666666666666667,1,0,0,0.5821889999788254,target,001,part2,2018_Dec_24_1848,fitts,60.02775682248813,
100,75,200,3,70,370,36,-0.34375,0.23333333333333334,1,0,0,0.6485514000523835,target,001,part2,2018_Dec_24_1848,fitts,60.02775682248813,
300,60,400,3,71,371,74,-0.13375,-0.1,1,0,0,0.5656715999357402,target,001,part2,2018_Dec_24_1848,fitts,60.02775682248813,
100,30,400,3,72,372,64,0.04,0.2311111111111111,1,0,0,0.7650932000251487,target,001,part2,2018_Dec_24_1848,fitts,60.02775682248813,
400,45,400,3,73,373,71,-0.01375,0.06666666666666667,1,0,0,0.5653828999493271,target,001,part2,2018_Dec_24_1848,fitts,60.02775682248813,
200,45,200,3,74,374,29,-0.15,0.2777777777777778,1,0,0,0.38220540003385395,target,001,part2,2018_Dec_24_1848,fitts,60.02775682248813,
300,45,500,3,75,375,90,0.05625,-0.11777777777777777,1,0,0,0.5819831999251619,target,001,part2,2018_Dec_24_1848,fitts,60.02775682248813,
300,30,500,3,76,376,86,0.27,0.015555555555555555,1,0,0,0.465347700053826,target,001,part2,2018_Dec_24_1848,fitts,60.02775682248813,
200,75,500,3,77,377,97,-0.21,-0.36,1,0,0,0.6814544999506325,target,001,part2,2018_Dec_24_1848,fitts,60.02775682248813,
400,75,200,3,78,378,39,-0.2275,0.25333333333333335,1,0,0,0.5326231999788433,target,001,part2,2018_Dec_24_1848,fitts,60.02775682248813,
400,60,200,3,79,379,35,-0.2625,0.28444444444444444,1,0,0,0.3660778000485152,target,001,part2,2018_Dec_24_1848,fitts,60.02775682248813,
300,60,300,3,80,380,54,-0.1925,0.011111111111111112,1,0,0,0.38128209998831153,target,001,part2,2018_Dec_24_1848,fitts,60.02775682248813,
200,60,200,3,81,381,33,-0.1875,0.19777777777777777,1,0,0,0.5992698000045493,target,001,part2,2018_Dec_24_1848,fitts,60.02775682248813,
300,60,200,3,82,382,34,-0.27,0.3422222222222222,1,0,0,0.39916959998663515,target,001,part2,2018_Dec_24_1848,fitts,60.02775682248813,
300,30,400,3,83,383,66,0.08,0.21555555555555556,1,0,0,0.5314571000635624,target,001,part2,2018_Dec_24_1848,fitts,60.02775682248813,
300,15,200,3,84,384,22,-0.1125,0.5666666666666667,1,0,0,0.8479800999630243,target,001,part2,2018_Dec_24_1848,fitts,60.02775682248813,
100,75,300,3,85,385,56,-0.275,0.02666666666666667,1,0,0,1.0978491998976097,target,001,part2,2018_Dec_24_1848,fitts,60.02775682248813,
200,45,500,3,86,386,89,0.0925,-0.06666666666666667,1,0,0,0.6646854999708012,target,001,part2,2018_Dec_24_1848,fitts,60.02775682248813,
200,30,400,3,87,387,65,0.01625,0.23333333333333334,1,0,0,0.56535440008156,target,001,part2,2018_Dec_24_1848,fitts,60.02775682248813,
300,15,400,3,88,388,62,0.09375,0.4688888888888889,1,0,0,0.5663232000079006,target,001,part2,2018_Dec_24_1848,fitts,60.02775682248813,
300,30,100,3,89,389,6,-0.31,0.5377777777777778,1,0,0,0.482180800056085,target,001,part2,2018_Dec_24_1848,fitts,60.02775682248813,
200,60,100,3,90,390,13,-0.3,0.5088888888888888,1,0,0,0.5158011999446899,target,001,part2,2018_Dec_24_1848,fitts,60.02775682248813,
400,75,100,3,91,391,19,-0.31625,0.5066666666666667,1,0,0,0.3650922999950126,target,001,part2,2018_Dec_24_1848,fitts,60.02775682248813,
200,45,100,3,92,392,9,-0.27,0.43555555555555553,1,0,0,0.3994526999304071,target,001,part2,2018_Dec_24_1848,fitts,60.02775682248813,
300,45,200,3,93,393,30,-0.22625,0.4222222222222222,1,0,0,0.43296460004057735,target,001,part2,2018_Dec_24_1848,fitts,60.02775682248813,
100,45,200,3,94,394,28,-0.205,0.37333333333333335,1,0,0,0.5980657000327483,target,001,part2,2018_Dec_24_1848,fitts,60.02775682248813,
400,15,500,3,95,395,83,0.2375,0.3844444444444444,1,0,0,0.49898639996536076,target,001,part2,2018_Dec_24_1848,fitts,60.02775682248813,
300,30,300,3,96,396,46,-0.09125,0.3022222222222222,1,0,0,0.4819458000129089,target,001,part2,2018_Dec_24_1848,fitts,60.02775682248813,
100,15,500,3,97,397,80,0.255,0.3488888888888889,1,0,0,0.8315516000147909,target,001,part2,2018_Dec_24_1848,fitts,60.02775682248813,
100,60,500,3,98,398,92,-0.0775,-0.32666666666666666,1,0,0,0.8809515000320971,target,001,part2,2018_Dec_24_1848,fitts,60.02775682248813,
300,75,500,3,99,399,98,-0.2,-0.30444444444444446,1,0,0,0.6318564000539482,target,001,part2,2018_Dec_24_1848,fitts,60.02775682248813,
300,45,300,4,0,400,50,-0.02,0.25333333333333335,1,0,0,0.43188440008088946,target,001,part2,2018_Dec_24_1848,fitts,60.02775682248813,
400,30,500,4,1,401,87,0.13375,0.09333333333333334,1,0,0,0.5320445999968797,target,001,part2,2018_Dec_24_1848,fitts,60.02775682248813,
300,30,100,4,2,402,6,-0.23,0.49333333333333335,1,0,0,0.531702300067991,target,001,part2,2018_Dec_24_1848,fitts,60.02775682248813,
200,30,400,4,3,403,65,0.02625,0.2733333333333333,1,0,0,0.8151851000729948,target,001,part2,2018_Dec_24_1848,fitts,60.02775682248813,
400,60,500,4,4,404,95,-0.0575,-0.21555555555555556,1,0,0,0.598514899960719,target,001,part2,2018_Dec_24_1848,fitts,60.02775682248813,
400,45,300,4,5,405,51,-0.1175,0.27555555555555555,1,0,0,0.39953809999860823,target,001,part2,2018_Dec_24_1848,fitts,60.02775682248813,
200,45,500,4,6,406,89,0.06625,-0.1288888888888889,1,0,0,0.7149111999897286,target,001,part2,2018_Dec_24_1848,fitts,60.02775682248813,
200,30,500,4,7,407,85,0.19625,0.06666666666666667,1,0,0,0.7314974999753758,target,001,part2,2018_Dec_24_1848,fitts,60.02775682248813,
200,75,100,4,8,408,17,-0.41875,0.5355555555555556,1,0,0,0.4819269999861717,target,001,part2,2018_Dec_24_1848,fitts,60.02775682248813,
100,60,300,4,9,409,52,-0.205,0.12222222222222222,1,0,0,0.7656489999499172,target,001,part2,2018_Dec_24_1848,fitts,60.02775682248813,
300,45,400,4,10,410,70,-0.05625,-0.02,1,0,0,0.5650331999640912,target,001,part2,2018_Dec_24_1848,fitts,60.02775682248813,
100,75,400,4,11,411,76,-0.24375,-0.18666666666666668,1,0,0,0.9646819999907166,target,001,part2,2018_Dec_24_1848,fitts,60.02775682248813,
100,60,500,4,12,412,92,-0.0475,-0.2911111111111111,1,0,0,0.814795900019817,target,001,part2,2018_Dec_24_1848,fitts,60.02775682248813,
200,15,100,4,13,413,1,-0.23625,0.5888888888888889,1,0,0,0.6485559999709949,target,001,part2,2018_Dec_24_1848,fitts,60.02775682248813,
400,15,200,4,14,414,23,-0.1325,0.4777777777777778,1,0,0,0.4823735000099987,target,001,part2,2018_Dec_24_1848,fitts,60.02775682248813,
300,30,200,4,15,415,26,-0.2025,0.5044444444444445,1,0,0,0.46531149989459664,target,001,part2,2018_Dec_24_1848,fitts,60.02775682248813,
400,60,100,4,16,416,15,-0.26125,0.5022222222222222,1,0,0,0.3982850998872891,target,001,part2,2018_Dec_24_1848,fitts,60.02775682248813,
100,15,500,4,17,417,80,0.2425,0.3711111111111111,1,0,0,0.8972551999613643,target,001,part2,2018_Dec_24_1848,fitts,60.02775682248813,
100,45,500,4,18,418,88,0.06625,-0.08888888888888889,1,0,0,0.7483644000021741,target,001,part2,2018_Dec_24_1848,fitts,60.02775682248813,
200,75,400,4,19,419,77,-0.2425,-0.15333333333333332,1,0,0,0.681162100052461,target,001,part2,2018_Dec_24_1848,fitts,60.02775682248813,
200,45,400,4,20,420,69,-0.05625,0.028888888888888888,1,0,0,0.615122799994424,target,001,part2,2018_Dec_24_1848,fitts,60.02775682248813,
400,75,200,4,21,421,39,-0.22125,0.24,1,0,0,0.44884919992182404,target,001,part2,2018_Dec_24_1848,fitts,60.02775682248813,
400,15,100,4,22,422,3,-0.275,0.6,1,0,0,0.3990040000062436,target,001,part2,2018_Dec_24_1848,fitts,60.02775682248813,
300,75,500,4,23,423,98,-0.21125,-0.4066666666666667,1,0,0,0.5822892999276519,target,001,part2,2018_Dec_24_1848,fitts,60.02775682248813,
300,60,400,4,24,424,74,-0.10625,-0.10888888888888888,1,0,0,0.4649341000476852,target,001,part2,2018_Dec_24_1848,fitts,60.02775682248813,
300,30,300,4,25,425,46,-0.11125,0.4266666666666667,1,0,0,0.5483309000264853,target,001,part2,2018_Dec_24_1848,fitts,60.02775682248813,
200,45,300,4,26,426,49,-0.07125,0.21777777777777776,1,0,0,0.46431690000463277,target,001,part2,2018_Dec_24_1848,fitts,60.02775682248813,
100,60,100,4,27,427,12,-0.31,0.4888888888888889,1,0,0,0.5816823999630287,target,001,part2,2018_Dec_24_1848,fitts,60.02775682248813,
100,30,100,4,28,428,4,-0.25875,0.5466666666666666,1,0,0,0.5483340000500903,target,001,part2,2018_Dec_24_1848,fitts,60.02775682248813,
300,15,100,4,29,429,2,-0.26,0.5777777777777777,1,0,0,0.49877679999917746,target,001,part2,2018_Dec_24_1848,fitts,60.02775682248813,
300,60,300,4,30,430,54,-0.19375,0.08444444444444445,1,0,0,0.5327342000091448,target,001,part2,2018_Dec_24_1848,fitts,60.02775682248813,
400,45,500,4,31,431,91,0.2175,-0.1622222222222222,1,0,0,0.5486554000526667,target,001,part2,2018_Dec_24_1848,fitts,60.02775682248813,
400,30,300,4,32,432,47,-0.11125,0.38,1,0,0,0.6153610000619665,target,001,part2,2018_Dec_24_1848,fitts,60.02775682248813,
400,45,200,4,33,433,31,-0.25625,0.52,1,0,0,0.3816231000237167,target,001,part2,2018_Dec_24_1848,fitts,60.02775682248813,
300,15,200,4,34,434,22,-0.11875,0.5533333333333333,1,0,0,0.4816572000272572,target,001,part2,2018_Dec_24_1848,fitts,60.02775682248813,
200,15,500,4,35,435,81,0.17875,0.37555555555555553,1,0,0,0.7318878999212757,target,001,part2,2018_Dec_24_1848,fitts,60.02775682248813,
400,60,300,4,36,436,55,-0.175,0.17333333333333334,1,0,0,0.5647086000535637,target,001,part2,2018_Dec_24_1848,fitts,60.02775682248813,
400,15,400,4,37,437,63,0.17125,0.4088888888888889,1,0,0,0.5989677000325173,target,001,part2,2018_Dec_24_1848,fitts,60.02775682248813,
100,30,400,4,38,438,64,0.0325,0.23777777777777778,1,0,0,1.0484213000163436,target,001,part2,2018_Dec_24_1848,fitts,60.02775682248813,
300,15,500,4,39,439,82,0.255,0.37777777777777777,1,0,0,0.6649793999968097,target,001,part2,2018_Dec_24_1848,fitts,60.02775682248813,
300,45,200,4,40,440,30,-0.1075,0.3711111111111111,1,0,0,0.43177060002926737,target,001,part2,2018_Dec_24_1848,fitts,60.02775682248813,
200,75,300,4,41,441,57,-0.27,-0.008888888888888889,1,0,0,0.6990568999899551,target,001,part2,2018_Dec_24_1848,fitts,60.02775682248813,
100,60,400,4,42,442,72,-0.1425,-0.10888888888888888,1,0,0,0.7319337000371888,target,001,part2,2018_Dec_24_1848,fitts,60.02775682248813,
200,60,200,4,43,443,33,-0.29875,0.3088888888888889,1,0,0,0.6981219999724999,target,001,part2,2018_Dec_24_1848,fitts,60.02775682248813,
100,15,300,4,44,444,40,0.0,0.48444444444444446,1,0,0,0.847850100020878,target,001,part2,2018_Dec_24_1848,fitts,60.02775682248813,
200,30,200,4,45,445,25,-0.1875,0.5022222222222222,1,0,0,0.648098099976778,target,001,part2,2018_Dec_24_1848,fitts,60.02775682248813,
200,60,400,4,46,446,73,-0.09625,-0.06444444444444444,1,0,0,0.647645500022918,target,001,part2,2018_Dec_24_1848,fitts,60.02775682248813,
200,30,100,4,47,447,5,-0.29125,0.5333333333333333,1,0,0,0.5985948999878019,target,001,part2,2018_Dec_24_1848,fitts,60.02775682248813,
100,45,200,4,48,448,28,-0.20125,0.3377777777777778,1,0,0,0.8648206000216305,target,001,part2,2018_Dec_24_1848,fitts,60.02775682248813,
200,75,200,4,49,449,37,-0.30125,0.26222222222222225,1,0,0,0.5649218000471592,target,001,part2,2018_Dec_24_1848,fitts,60.02775682248813,
300,30,500,4,50,450,86,0.1575,0.15333333333333332,1,0,0,0.6984750999836251,target,001,part2,2018_Dec_24_1848,fitts,60.02775682248813,
100,15,200,4,51,451,20,-0.15125,0.54,1,0,0,0.665247599943541,target,001,part2,2018_Dec_24_1848,fitts,60.02775682248813,
300,15,300,4,52,452,42,-0.06,0.5133333333333333,1,0,0,0.5659428000217304,target,001,part2,2018_Dec_24_1848,fitts,60.02775682248813,
200,60,300,4,53,453,53,-0.1725,0.12444444444444444,1,0,0,0.7151020999299362,target,001,part2,2018_Dec_24_1848,fitts,60.02775682248813,
100,45,400,4,54,454,68,-0.03375,0.04888888888888889,1,0,0,1.3152720999205485,target,001,part2,2018_Dec_24_1848,fitts,60.02775682248813,
100,30,300,4,55,455,44,-0.0475,0.3488888888888889,1,0,0,0.9147899999516085,target,001,part2,2018_Dec_24_1848,fitts,60.02775682248813,
200,60,500,4,56,456,93,-0.0725,-0.31333333333333335,1,0,0,0.7149295000126585,target,001,part2,2018_Dec_24_1848,fitts,60.02775682248813,
400,45,400,4,57,457,71,-0.0925,0.06,1,0,0,0.449483499978669,target,001,part2,2018_Dec_24_1848,fitts,60.02775682248813,
400,60,400,4,58,458,75,-0.13625,-0.022222222222222223,1,0,0,0.514116800040938,target,001,part2,2018_Dec_24_1848,fitts,60.02775682248813,
200,45,200,4,59,459,29,-0.2175,0.3933333333333333,1,0,0,0.5485762999160215,target,001,part2,2018_Dec_24_1848,fitts,60.02775682248813,
200,30,300,4,60,460,45,-0.02875,0.30666666666666664,1,0,0,0.5651925000129268,target,001,part2,2018_Dec_24_1848,fitts,60.02775682248813,
100,45,100,4,61,461,8,-0.30125,0.5333333333333333,1,0,0,0.5493777999654412,target,001,part2,2018_Dec_24_1848,fitts,60.02775682248813,
200,60,100,4,62,462,13,-0.305,0.46,1,0,0,0.43162359995767474,target,001,part2,2018_Dec_24_1848,fitts,60.02775682248813,
200,15,400,4,63,463,61,0.06125,0.4777777777777778,1,0,0,0.5146933000069112,target,001,part2,2018_Dec_24_1848,fitts,60.02775682248813,
100,75,500,4,64,464,96,-0.1975,-0.3933333333333333,1,0,0,0.8984241000143811,target,001,part2,2018_Dec_24_1848,fitts,60.02775682248813,
300,60,500,4,65,465,94,-0.08125,-0.32,1,0,0,0.5649601999903098,target,001,part2,2018_Dec_24_1848,fitts,60.02775682248813,
200,45,100,4,66,466,9,-0.28125,0.4911111111111111,1,0,0,0.40041979996021837,target,001,part2,2018_Dec_24_1848,fitts,60.02775682248813,
300,75,300,4,67,467,58,-0.265,-0.0022222222222222222,1,0,0,0.5150063999462873,target,001,part2,2018_Dec_24_1848,fitts,60.02775682248813,
400,75,400,4,68,468,79,-0.19,-0.09777777777777778,1,0,0,0.5819198000244796,target,001,part2,2018_Dec_24_1848,fitts,60.02775682248813,
100,45,300,4,69,469,48,-0.115,0.21333333333333335,1,0,0,0.7151087999809533,target,001,part2,2018_Dec_24_1848,fitts,60.02775682248813,
400,75,500,4,70,470,99,-0.24375,-0.2777777777777778,1,0,0,0.5960113999899477,target,001,part2,2018_Dec_24_1848,fitts,60.02775682248813,
400,75,100,4,71,471,19,-0.3675,0.4266666666666667,1,0,0,0.5484855999238789,target,001,part2,2018_Dec_24_1848,fitts,60.02775682248813,
400,75,300,4,72,472,59,-0.28875,0.017777777777777778,1,0,0,0.3987794000422582,target,001,part2,2018_Dec_24_1848,fitts,60.02775682248813,
200,75,500,4,73,473,97,-0.24,-0.33111111111111113,1,0,0,0.5987590999575332,target,001,part2,2018_Dec_24_1848,fitts,60.02775682248813,
300,45,500,4,74,474,90,0.07875,-0.08888888888888889,1,0,0,0.615099300048314,target,001,part2,2018_Dec_24_1848,fitts,60.02775682248813,
400,30,200,4,75,475,27,-0.1,0.42444444444444446,1,0,0,0.4663781999843195,target,001,part2,2018_Dec_24_1848,fitts,60.02775682248813,
300,15,400,4,76,476,62,0.2025,0.4266666666666667,1,0,0,0.48196380003355443,target,001,part2,2018_Dec_24_1848,fitts,60.02775682248813,
100,15,400,4,77,477,60,0.13,0.43333333333333335,1,0,0,0.7478127999929711,target,001,part2,2018_Dec_24_1848,fitts,60.02775682248813,
400,15,300,4,78,478,43,-0.0425,0.5444444444444444,1,0,0,0.4984973999671638,target,001,part2,2018_Dec_24_1848,fitts,60.02775682248813,
100,15,100,4,79,479,0,-0.2525,0.5888888888888889,1,0,0,0.9143566000275314,target,001,part2,2018_Dec_24_1848,fitts,60.02775682248813,
300,60,200,4,80,480,34,-0.23625,0.32666666666666666,1,0,0,0.4820207000011578,target,001,part2,2018_Dec_24_1848,fitts,60.02775682248813,
400,45,100,4,81,481,11,-0.24875,0.4444444444444444,1,0,0,0.33344199997372925,target,001,part2,2018_Dec_24_1848,fitts,60.02775682248813,
300,75,100,4,82,482,18,-0.345,0.41555555555555557,1,0,0,0.3990392000414431,target,001,part2,2018_Dec_24_1848,fitts,60.02775682248813,
100,60,200,4,83,483,32,-0.2575,0.31333333333333335,1,0,0,0.6814951000269502,target,001,part2,2018_Dec_24_1848,fitts,60.02775682248813,
300,75,200,4,84,484,38,-0.28125,0.24666666666666667,1,0,0,0.4657967999810353,target,001,part2,2018_Dec_24_1848,fitts,60.02775682248813,
100,75,300,4,85,485,56,-0.285,0.08222222222222222,1,0,0,0.748379800003022,target,001,part2,2018_Dec_24_1848,fitts,60.02775682248813,
400,60,200,4,86,486,35,-0.23375,0.18444444444444444,1,0,0,0.38209480000659823,target,001,part2,2018_Dec_24_1848,fitts,60.02775682248813,
400,15,500,4,87,487,83,0.14625,0.4444444444444444,1,0,0,0.49774490005802363,target,001,part2,2018_Dec_24_1848,fitts,60.02775682248813,
400,30,400,4,88,488,67,0.00375,0.19555555555555557,1,0,0,0.4484862999524921,target,001,part2,2018_Dec_24_1848,fitts,60.02775682248813,
100,75,200,4,89,489,36,-0.3,0.23333333333333334,1,0,0,0.5654752999544144,target,001,part2,2018_Dec_24_1848,fitts,60.02775682248813,
100,75,100,4,90,490,16,-0.34375,0.4577777777777778,1,0,0,0.5817531000357121,target,001,part2,2018_Dec_24_1848,fitts,60.02775682248813,
300,45,100,4,91,491,10,-0.31375,0.48,1,0,0,0.3820984000340104,target,001,part2,2018_Dec_24_1848,fitts,60.02775682248813,
100,30,500,4,92,492,84,0.16,0.12444444444444444,1,0,0,1.264235399896279,target,001,part2,2018_Dec_24_1848,fitts,60.02775682248813,
300,75,400,4,93,493,78,-0.21,-0.1622222222222222,1,0,0,0.7650817999383435,target,001,part2,2018_Dec_24_1848,fitts,60.02775682248813,
300,30,400,4,94,494,66,0.095,0.19111111111111112,1,0,0,0.6325098000233993,target,001,part2,2018_Dec_24_1848,fitts,60.02775682248813,
200,15,300,4,95,495,41,-0.0175,0.46,1,0,0,0.6814385999459773,target,001,part2,2018_Dec_24_1848,fitts,60.02775682248813,
100,30,200,4,96,496,24,-0.155,0.43777777777777777,1,0,0,0.6482606999343261,target,001,part2,2018_Dec_24_1848,fitts,60.02775682248813,
200,15,200,4,97,497,21,-0.13375,0.5888888888888889,1,0,0,0.4985693000489846,target,001,part2,2018_Dec_24_1848,fitts,60.02775682248813,
400,30,100,4,98,498,7,-0.20625,0.5111111111111111,1,0,0,0.6148108000634238,target,001,part2,2018_Dec_24_1848,fitts,60.02775682248813,
300,60,100,4,99,499,14,-0.32,0.5133333333333333,1,0,0,0.3991599000291899,target,001,part2,2018_Dec_24_1848,fitts,60.02775682248813,
